SamplingTime, AccelerationX, AccelerationY, AccelerationZ, GyroX, GyroY, GyroZ, MagneticFieldX, MagneticFieldY, MagneticFieldZ
1773751100.932890, , , , , , , , , 
1773751100.942513, , , , , , , , , 
1773751100.952982, 0.242114, 0.010774, -9.672126, 0.009927, -0.035284, 0.002697, 185.804108, -7.599945, 29.871109
1773751100.962756, 0.218022, 0.011672, -9.936984, 0.020382, -0.015021, 0.004146, 185.773880, -7.534210, 29.945099
1773751100.972463, 0.224456, 0.019154, -10.078691, 0.010086, -0.005782, 0.004665, 185.709915, -7.578720, 29.703949
1773751100.982356, 0.223708, 0.012719, -9.981576, -0.003032, -0.008057, 0.005799, 185.565659, -7.566696, 29.964066
1773751100.992941, 0.218920, -0.002245, -9.868151, -0.008003, -0.012200, 0.003536, 185.764130, -7.523514, 29.965363
1773751101.002915, 0.212785, 0.000898, -9.811438, -0.002528, -0.010953, 0.000745, 185.558563, -7.399872, 29.848724
1773751101.012913, 0.208744, 0.014515, -9.728539, -0.000446, 0.043579, 0.001982, 185.444427, -7.444931, 29.954773
1773751101.022471, 0.176423, 0.013318, -9.651476, 0.009158, 0.075688, 0.001283, 185.750717, -7.655594, 30.157486
1773751101.032911, 0.214431, 0.029479, -9.752780, -0.001290, 0.060236, 0.003789, 185.848206, -7.716797, 30.073303
1773751101.042904, 0.242563, -0.004040, -9.729287, 0.010493, 0.004920, 0.000933, 185.737579, -7.671936, 29.925461
1773751101.052902, 0.272041, 0.012719, -9.815179, 0.007568, -0.054352, 0.005143, 185.898865, -7.746902, 30.204254
1773751101.062892, 0.269048, 0.012869, -9.844508, 0.008585, -0.079895, 0.006969, 185.917770, -7.511948, 30.127899
1773751101.072478, 0.231938, 0.006584, -9.887604, 0.005183, -0.054461, 0.003066, 185.722061, -7.671875, 29.899628
1773751101.082905, 0.202011, 0.007183, -9.924714, -0.004744, -0.021986, 0.003338, 185.538040, -7.589584, 30.113220
1773751101.092892, 0.202909, -0.006135, -9.830592, -0.005647, -0.021515, 0.003342, 185.541763, -7.857971, 30.057266
1773751101.102912, 0.203208, -0.002693, -9.829245, 0.008146, -0.059497, 0.003346, 185.595230, -7.615738, 30.048431
1773751101.112902, 0.211288, 0.021847, -9.861717, 0.004331, -0.108209, 0.003185, 185.637787, -7.612686, 30.066589
1773751101.122506, 0.243011, -0.006434, -9.695769, 0.002367, -0.109624, 0.004514, 185.606522, -7.500961, 30.291550
1773751101.132908, 0.195127, -0.013467, -9.690232, -0.010894, -0.040926, 0.003330, 185.322556, -7.637146, 30.098282
1773751101.142897, 0.136170, -0.010924, -9.830891, -0.000399, 0.030616, 0.001909, 185.404877, -7.667343, 30.061859
1773751101.152926, 0.126444, 0.002394, -9.902119, 0.014992, 0.025493, 0.001170, 185.401352, -7.589996, 30.044693
1773751101.162903, 0.172682, 0.024840, -9.888951, 0.029616, -0.007144, 0.004914, 185.582062, -7.538086, 30.510239
1773751101.172519, 0.194679, 0.008829, -9.772832, 0.035902, 0.020151, 0.006041, 185.382034, -7.629440, 30.257156
1773751101.182903, 0.149039, -0.004489, -9.726594, 0.015128, 0.066269, 0.002013, 185.485489, -7.532913, 29.947479
1773751101.192888, 0.162955, -0.029628, -9.700258, -0.004366, 0.093872, 0.002718, 185.490051, -7.588028, 30.108612
1773751101.202322, 0.173879, -0.019154, -9.790788, -0.008105, 0.091690, 0.000912, 185.490051, -7.588028, 30.108612
1773751101.212534, 0.191386, -0.004040, -9.896283, -0.012525, 0.061364, 0.002177, 185.547928, -7.821411, 29.789993
1773751101.222539, 0.222361, 0.002245, -9.933243, -0.017785, 0.021666, 0.005177, 185.589569, -7.455765, 30.047058
1773751101.232888, 0.241515, -0.009427, -9.876830, -0.030983, 0.017725, 0.003837, 185.544495, -7.539688, 29.907272
1773751101.242900, 0.206201, -0.013767, -9.887454, -0.035786, 0.023877, 0.001036, 185.582504, -7.592026, 30.000259
1773751101.252896, 0.199766, -0.011073, -9.858574, -0.023379, 0.009149, -0.000853, 185.514038, -7.577957, 30.045349
1773751101.262889, 0.228048, 0.021398, -9.810541, -0.000183, -0.005217, 0.003312, 185.472733, -7.583893, 29.906479
1773751101.272548, 0.237924, 0.024241, -9.792285, 0.010543, -0.037949, 0.004574, 185.685196, -7.517426, 30.077515
1773751101.282896, 0.217573, 0.028132, -9.762956, 0.015458, -0.014099, 0.001499, 185.546219, -7.688049, 29.909439
1773751101.292886, 0.202909, 0.009278, -9.749937, -0.000181, 0.034576, 0.003066, 185.531418, -7.506165, 29.682617
1773751101.302899, 0.167145, 0.001796, -9.657312, -0.012803, 0.024069, 0.001089, 185.511841, -7.462677, 29.655930
1773751101.312121, 0.220566, -0.000150, -9.661053, -0.014815, -0.017508, 0.000895, 185.827118, -7.616592, 29.788803
1773751101.322582, 0.231639, -0.002693, -9.736021, -0.005973, -0.013006, 0.001909, 185.562119, -7.546799, 30.119156
1773751101.331965, 0.206650, 0.018555, -9.867702, -0.005973, -0.013006, 0.001909, 185.726608, -7.686066, 29.948608
1773751101.342897, 0.196923, -0.002693, -9.877129, -0.009810, 0.019366, 0.004755, 185.730606, -7.731125, 30.012878
1773751101.352898, 0.191985, -0.013767, -9.843012, -0.017154, 0.015699, 0.000727, 185.406418, -7.515060, 29.973022
1773751101.362891, 0.219518, 0.000748, -9.866655, -0.008710, 0.016478, 0.001550, 185.907486, -7.482330, 29.951218
1773751101.372616, 0.199467, 0.024241, -9.889549, -0.011946, 0.000866, 0.002461, 185.673660, -7.385422, 29.851852
1773751101.382887, 0.220865, 0.015263, -9.827300, -0.007735, -0.002814, 0.001234, 185.608337, -7.510498, 29.880966
1773751101.392688, 0.222062, 0.011372, -9.857676, -0.009990, 0.007563, 0.001365, 185.565872, -7.642273, 30.079712
1773751101.402895, 0.205602, 0.021997, -9.826552, -0.012180, 0.005967, 0.002141, 185.567215, -7.380554, 30.004959
1773751101.412881, 0.200065, 0.020500, -9.802011, -0.012604, -0.008147, 0.003546, 185.578461, -7.342712, 29.950180
1773751101.422611, 0.224157, 0.014964, -9.871293, -0.012604, -0.008147, 0.003546, 185.603806, -7.392075, 29.976776
1773751101.432888, 0.214131, 0.010624, -9.897480, -0.006022, -0.006942, 0.003491, 185.533691, -7.514114, 29.883881
1773751101.442983, 0.205901, 0.028132, -9.879673, -0.001308, 0.006607, 0.002744, 185.618317, -7.526596, 29.937134
1773751101.452838, 0.189890, 0.032471, -9.825205, -0.001308, 0.006607, 0.002744, 185.490051, -7.500137, 30.080307
1773751101.462896, 0.196923, 0.018106, -9.800814, 0.014061, 0.009613, 0.001906, 185.584259, -7.571365, 30.065506
1773751101.472640, 0.199766, 0.016909, -9.760262, 0.007054, 0.010276, 0.001112, 185.551346, -7.458252, 30.140594
1773751101.482911, 0.203806, 0.010175, -9.792883, 0.005976, 0.001726, 0.004781, 185.561005, -7.482361, 30.011368
1773751101.492884, 0.198868, 0.002245, -9.810241, 0.005048, -0.012602, 0.000552, 185.622345, -7.538727, 30.110504
1773751101.502880, 0.178667, -0.081104, -9.858275, -0.000884, -0.005956, 0.005506, 185.480011, -7.535019, 30.174072
1773751101.512897, 0.077363, -0.518345, -9.837625, 0.015149, -0.038588, 0.006216, 185.480011, -7.535019, 30.174072
1773751101.522668, -0.158765, -1.927033, -9.590274, -0.075592, -0.046231, -0.006695, 185.543610, -7.278152, 29.770050
1773751101.532414, 0.279972, -0.083348, -9.906309, -0.072960, -0.035445, -0.020179, 185.512253, -7.462067, 29.828049
1773751101.542895, 0.325163, 0.530166, -10.031705, -0.024694, -0.043523, -0.002311, 185.552612, -7.301437, 29.888489
1773751101.553004, 0.176423, 0.166547, -9.994445, 0.030312, -0.055072, 0.020624, 185.521805, -7.298080, 29.811768
1773751101.562950, 0.081702, -0.374244, -9.788993, 0.047802, -0.041349, 0.030436, 185.507324, -7.592270, 29.910782
1773751101.572681, 0.086790, -0.553509, -9.686491, 0.021205, -0.004181, 0.029022, 185.308548, -7.299164, 30.268448
1773751101.582894, 0.145597, -0.500089, -9.755324, -0.004741, 0.005393, 0.044827, 185.480438, -7.290985, 30.022903
1773751101.592882, 0.173280, -0.346561, -9.771635, -0.009781, -0.003549, 0.063607, 185.392181, -7.422241, 30.251160
1773751101.602870, 0.143203, -0.142605, -9.857976, 0.007537, -0.001203, 0.076820, 185.381943, -7.259338, 30.179993
1773751101.612202, 0.054618, -0.153528, -9.786449, 0.008710, -0.000193, 0.066682, 185.296783, -7.407532, 29.930374
1773751101.622757, 0.009278, -0.247501, -9.714174, -0.000423, 0.004669, 0.038867, 185.273926, -7.303375, 29.990463
1773751101.632896, 0.145148, -0.311845, -9.763854, -0.011421, 0.010292, 0.036231, 185.336594, -7.172699, 29.751678
1773751101.642905, 0.198569, -0.225354, -9.835380, -0.012774, 0.014261, 0.036498, 185.408386, -7.255768, 29.943146
1773751101.652897, 0.174178, -0.104447, -9.917232, -0.004281, 0.015508, 0.029736, 185.340363, -7.319122, 29.928360
1773751101.662902, 0.184204, -0.114173, -9.841216, 0.004039, -0.008431, 0.009800, 185.383362, -7.176590, 29.864182
1773751101.672709, 0.173879, -0.141557, -9.780314, 0.002264, 0.001812, -0.012720, 185.404190, -7.375137, 29.744705
1773751101.682906, 0.248249, -0.139313, -9.822811, 0.010148, -0.001503, -0.017813, 185.472412, -7.260651, 29.742401
1773751101.692887, 0.153229, -0.103549, -9.873987, 0.006680, 0.012502, -0.034753, 185.279770, -7.344940, 29.994705
1773751101.702879, 0.138265, -0.032172, -9.921871, 0.004860, 0.038519, -0.048079, 185.294586, -7.235458, 29.977890
1773751101.712893, 0.267103, 0.037559, -9.837775, 0.000682, 0.034314, -0.043792, 185.279083, -7.256943, 29.851730
1773751101.722743, 0.291344, 0.195726, -9.858724, 0.008237, 0.020214, -0.020196, 185.295044, -7.300735, 29.705887
1773751101.732886, 0.230592, 0.225354, -9.834782, 0.013462, 0.005028, -0.010239, 185.402451, -7.377747, 29.953537
1773751101.742901, 0.108637, 0.173430, -9.772982, 0.021297, -0.006664, -0.012771, 185.316330, -7.278488, 30.024399
1773751101.752890, 0.204255, 0.224456, -9.597906, 0.010124, -0.007551, -0.010655, 185.328171, -7.281052, 30.018997
1773751101.762877, 0.268300, 0.216226, -9.516652, -0.011663, -0.008746, 0.004254, 185.359253, -7.299683, 30.023087
1773751101.772725, 0.232238, 0.027384, -9.586383, -0.033620, 0.014089, 0.002031, 185.367859, -7.324020, 29.954529
1773751101.782876, 0.185850, -0.114922, -9.799467, -0.033330, 0.012186, -0.019502, 185.425095, -7.370117, 29.403442
1773751101.792875, 0.292392, -0.037858, -9.965266, -0.024652, 0.011457, -0.025608, 185.250015, -7.132431, 29.658707
1773751101.802831, 0.357335, 0.132878, -10.019135, -0.013097, 0.041938, -0.006394, 185.280533, -7.247864, 29.842255
1773751101.812905, 0.345214, 0.099808, -9.992799, 0.001723, 0.012993, 0.013304, 185.280533, -7.247864, 29.842255
1773751101.822818, 0.326509, 0.036063, -9.903466, 0.011320, -0.008752, 0.028286, 185.350525, -7.278580, 29.662033
1773751101.832629, 0.268300, 0.084695, -9.878626, 0.013869, -0.020484, 0.038824, 185.554657, -7.353287, 29.421585
1773751101.842695, 0.197372, -0.013617, -9.765500, 0.009865, -0.041591, 0.048732, 185.309341, -7.283051, 29.717316
1773751101.852901, 0.182558, -0.057461, -9.829545, 0.014374, -0.036834, 0.042280, 185.369110, -7.382263, 29.826065
1773751101.862353, 0.084096, 0.063297, -9.785401, 0.020192, -0.044958, 0.032627, 185.303726, -7.245834, 29.769897
1773751101.872776, 0.016310, 0.040552, -9.696517, 0.019866, -0.033615, 0.012787, 185.419540, -7.228470, 29.738037
1773751101.882914, 0.061351, -0.096367, -9.617209, -0.001653, -0.007385, -0.012263, 185.309143, -7.329742, 29.878891
1773751101.892875, 0.116119, -0.138415, -9.589526, -0.021661, 0.007970, -0.021698, 185.256989, -7.363800, 29.663651
1773751101.902894, 0.224756, -0.048931, -9.749040, -0.031390, 0.029883, -0.008730, 185.434296, -7.111176, 29.884232
1773751101.912886, 0.153379, -0.005686, -9.797672, -0.034704, 0.029061, 0.001869, 185.388229, -7.198624, 29.659302
1773751101.922805, 0.060454, 0.026935, -9.819070, -0.024818, 0.004024, -0.002246, 185.260590, -7.161652, 29.346375
1773751101.932284, 0.100706, 0.076166, -9.784204, -0.031466, 0.004589, -0.000800, 185.375763, -7.002716, 29.510300
1773751101.942889, 0.092027, 0.113874, -9.777620, -0.026891, -0.019235, 0.006744, 185.200104, -7.045395, 29.513290
1773751101.952893, 0.054169, 0.043096, -9.787047, -0.019401, -0.001670, 0.009181, 185.063324, -7.214539, 29.717026
1773751101.962882, 0.006883, -0.046388, -9.908254, -0.003472, 0.025422, -0.004152, 185.223404, -7.049881, 29.663712
1773751101.972820, 0.039355, -0.123002, -10.179697, 0.025787, 0.124653, -0.027843, 185.151047, -6.999405, 29.506546
1773751101.982883, 0.126743, -0.144849, -9.906907, 0.011381, 0.077320, -0.034602, 185.325043, -7.104446, 29.797394
1773751101.992810, 0.136170, 0.060005, -9.736171, 0.000462, -0.056996, -0.019157, 185.405319, -7.170883, 29.418091
1773751102.002891, 0.040552, 0.069282, -9.851242, -0.014406, -0.058730, -0.004461, 185.153854, -7.161728, 29.362549
1773751102.012886, -0.124498, -0.052373, -9.858724, -0.003856, -0.039468, -0.012706, 185.289948, -7.442368, 29.497131
1773751102.022819, -0.028730, -0.077512, -9.827899, -0.009063, -0.010370, -0.032434, 185.218552, -7.345779, 29.153519
1773751102.031936, -0.028730, -0.077512, -9.827899, -0.011709, -0.018083, -0.030548, 185.331802, -7.069199, 29.513428
1773751102.042872, 0.129287, -0.025887, -9.813683, -0.021375, -0.037177, -0.027718, 185.246841, -7.370636, 29.634460
1773751102.052891, 0.280870, -0.023343, -9.816676, -0.028187, -0.008356, -0.022510, 185.152618, -7.174820, 29.765488
1773751102.062180, 0.280870, -0.023343, -9.816676, -0.010036, 0.003213, -0.009140, 185.238510, -7.169983, 29.756378
1773751102.072837, 0.287454, 0.036960, -9.813234, 0.002860, 0.019666, -0.007238, 185.048233, -7.149216, 29.404739
1773751102.082870, 0.220117, 0.079458, -9.804705, 0.002994, 0.045334, -0.008890, 185.364456, -7.170197, 29.771042
1773751102.092875, 0.206650, 0.079458, -9.846753, 0.012975, 0.033879, -0.003631, 185.364456, -7.170197, 29.771042
1773751102.102412, 0.206650, 0.079458, -9.846753, 0.008297, 0.047085, -0.005550, 185.276993, -7.266022, 29.885284
1773751102.112940, 0.213832, -0.003891, -9.919776, 0.014965, 0.048839, -0.000122, 185.270294, -7.132645, 29.437393
1773751102.122860, 0.241216, 0.093972, -9.812336, 0.023297, 0.032530, 0.003780, 185.253311, -7.354507, 29.121140
1773751102.132866, 0.131531, 0.028730, -9.743204, 0.016467, 0.032924, 0.001691, 185.197388, -7.337311, 29.065414
1773751102.142887, 0.132280, -0.008679, -9.772682, 0.000701, 0.021242, 0.001087, 185.178909, -7.116714, 29.400574
1773751102.152954, 0.136021, -0.038457, -9.747094, -0.008289, 0.020268, -0.016793, 185.332260, -7.245636, 29.278061
1773751102.162886, 0.136021, -0.038457, -9.747094, -0.020854, 0.005771, -0.035214, 185.187622, -7.013199, 29.475204
1773751102.172883, 0.086640, -0.062399, -9.742605, -0.019381, 0.006022, -0.041511, 185.278610, -6.894150, 29.366043
1773751102.182885, 0.118962, -0.022446, -9.794679, -0.016176, 0.018389, -0.034864, 185.282471, -7.013504, 29.391068
1773751102.192872, 0.107290, 0.086042, -9.797971, -0.006369, 0.023072, -0.021944, 185.250320, -7.137009, 29.043884
1773751102.202890, 0.133327, 0.172682, -9.778368, 0.006152, 0.024966, -0.016469, 185.221436, -7.066040, 29.502213
1773751102.212883, 0.130484, 0.083049, -9.760113, 0.009200, 0.032709, -0.009177, 185.147598, -7.048767, 29.295227
1773751102.222902, 0.238822, -0.025738, -9.787197, 0.013543, 0.042322, -0.002982, 185.207428, -7.152618, 29.367233
1773751102.232257, 0.308403, -0.066289, -9.847202, 0.013669, 0.081092, 0.004031, 185.365463, -7.122864, 29.378357
1773751102.242887, 0.333393, -0.114323, -9.999084, -0.007468, 0.019307, 0.027147, 185.137039, -7.075363, 28.863235
1773751102.252882, 0.339827, -0.146794, -9.801712, -0.029177, -0.040549, 0.048856, 185.350632, -7.155991, 29.089401
1773751102.262907, 0.311994, -0.090082, -9.767445, -0.042891, -0.025968, 0.062944, 185.332489, -7.031296, 29.367859
1773751102.272885, 0.235829, 0.010175, -9.786449, -0.034932, -0.008990, 0.066842, 185.338120, -6.831039, 29.306381
1773751102.282881, 0.221314, 0.129137, -9.819818, -0.018927, -0.006542, 0.060488, 185.256363, -7.081512, 29.118759
1773751102.292864, 0.128688, 0.144251, -9.839570, -0.015928, -0.000319, 0.060464, 185.191391, -7.013565, 29.100388
1773751102.302567, 0.137218, 0.149937, -9.761310, -0.012393, 0.023813, 0.052101, 185.104401, -6.908447, 29.095352
1773751102.312889, 0.092925, 0.193182, -9.767295, 0.000196, 0.058777, 0.036971, 185.031830, -6.830963, 29.039352
1773751102.322889, 0.016161, 0.181959, -9.802610, 0.002762, 0.061271, 0.025283, 185.120987, -6.776932, 28.960526
1773751102.332863, 0.055964, 0.167594, -9.811738, 0.001033, 0.029283, 0.003216, 184.831680, -6.472351, 29.027969
1773751102.342880, 0.047734, 0.093524, -9.832388, -0.007672, 0.015977, -0.015434, 185.006989, -6.623230, 28.827454
1773751102.352892, 0.092177, 0.004040, -9.860071, -0.021978, 0.014147, -0.006829, 184.899948, -6.614288, 28.745758
1773751102.362708, 0.316932, -0.037110, -9.871742, -0.024906, -0.009206, 0.004740, 184.829956, -6.752151, 29.093170
1773751102.372908, 0.426168, 0.027683, -9.925762, -0.018988, -0.005578, 0.014310, 184.955017, -6.459839, 28.814423
1773751102.382866, 0.403423, 0.035763, -9.885060, -0.007740, -0.013147, 0.010027, 185.190628, -6.656998, 28.855820
1773751102.392884, 0.224307, 0.049680, -9.835829, 0.008399, -0.023747, -0.000755, 185.190628, -6.656998, 28.855820
1773751102.402869, 0.061351, 0.111330, -9.766996, 0.012004, -0.036930, -0.006150, 185.005203, -6.818939, 28.641937
1773751102.412902, 0.038756, 0.147393, -9.723302, 0.003015, -0.024141, -0.013128, 184.839355, -6.616943, 28.962662
1773751102.422890, 0.001945, 0.133477, -9.642647, -0.005146, -0.004906, -0.025075, 184.916092, -6.731155, 29.011795
1773751102.432621, 0.001796, 0.049530, -9.712678, -0.013425, 0.012117, -0.023034, 184.869797, -6.748352, 28.714508
1773751102.442877, 0.130484, -0.134524, -9.838523, -0.006850, 0.019539, -0.006029, 184.928299, -6.564926, 28.970535
1773751102.452919, 0.294936, -0.013318, -9.937733, 0.002467, 0.027247, 0.011032, 185.041946, -6.802277, 28.670212
1773751102.462867, 0.392499, 0.101005, -9.943419, 0.009135, 0.004999, 0.017798, 185.154144, -6.698959, 28.950180
1773751102.472948, 0.310348, 0.030825, -9.815628, 0.006200, -0.000469, 0.009194, 184.898285, -6.438202, 28.919144
1773751102.482953, 0.260818, -0.080355, -9.792135, 0.007636, -0.007941, -0.011323, 184.999878, -6.845062, 29.073578
1773751102.492864, 0.130185, -0.119411, -9.776872, -0.005723, -0.002534, -0.037439, 185.035156, -6.793121, 28.598724
1773751102.502860, 0.068534, 0.016161, -9.735722, 0.015061, 0.091192, -0.051021, 184.959488, -6.631165, 28.976089
1773751102.512892, 0.095918, -0.039654, -10.040234, -0.007171, 0.069874, -0.068139, 184.918549, -6.696213, 28.846771
1773751102.522888, 0.050278, -0.111480, -9.710882, -0.021592, -0.015743, -0.050511, 185.106918, -6.732086, 28.840530
1773751102.532863, 0.209193, 0.142006, -9.604639, -0.025910, -0.011082, -0.033173, 184.966354, -6.617035, 28.859512
1773751102.542878, 0.196923, 0.100856, -9.760562, -0.022588, 0.004990, -0.021595, 184.929626, -6.725983, 28.816681
1773751102.552877, 0.237774, -0.043395, -9.786748, -0.011231, 0.023387, -0.004105, 184.974640, -6.765778, 28.555298
1773751102.562866, 0.434697, -0.168941, -9.798869, -0.013415, 0.044051, -0.002798, 185.190384, -6.922104, 28.983490
1773751102.572992, 0.423026, -0.130185, -9.838822, 0.005116, 0.051273, -0.025018, 185.096420, -6.843796, 28.670792
1773751102.582922, 0.186448, -0.085293, -10.032453, 0.009095, 0.025231, -0.035226, 184.998596, -6.751038, 28.625183
1773751102.592929, 0.063895, 0.023343, -9.973197, -0.002682, -0.035992, -0.029311, 185.153854, -6.751617, 28.566315
1773751102.602851, 0.025139, 0.095170, -9.739163, -0.013589, -0.034506, -0.022086, 184.991135, -6.781769, 28.584976
1773751102.612902, 0.005387, 0.106991, -9.733627, -0.019752, -0.001398, -0.028573, 185.087479, -6.708496, 28.724686
1773751102.622915, 0.034866, 0.083498, -9.830442, -0.017463, 0.019468, -0.040370, 185.123993, -6.848907, 28.648758
1773751102.632762, 0.099359, 0.049680, -9.850793, -0.014558, 0.016730, -0.057231, 184.706940, -6.585983, 28.653107
1773751102.641871, 0.135572, 0.040851, -9.850793, -0.015368, 0.005637, -0.071664, 185.206284, -6.606903, 28.439865
1773751102.652883, 0.124498, -0.015862, -9.849746, -0.014696, 0.027947, -0.074456, 184.927673, -6.587204, 28.438248
1773751102.662770, 0.172981, 0.187047, -9.822661, 0.002463, 0.029812, -0.049965, 185.191574, -6.580200, 28.420593
1773751102.673024, 0.293888, 0.377236, -9.821464, 0.002409, 0.000110, -0.018017, 185.129684, -6.602768, 28.625656
1773751102.682863, 0.365415, 0.403872, -9.765350, -0.000685, -0.020356, 0.003593, 184.912628, -6.793900, 28.621414
1773751102.692863, 0.259621, 0.299724, -9.720159, -0.021483, 0.031135, 0.013079, 184.912628, -6.793900, 28.621414
1773751102.702849, 0.268001, 0.167594, -9.676016, -0.026202, 0.053905, 0.023880, 184.997147, -6.627838, 28.619354
1773751102.712875, 0.378583, 0.105195, -9.718513, -0.028530, 0.054328, 0.020757, 184.926987, -6.578217, 28.405823
1773751102.722391, 0.411054, 0.010924, -9.809643, -0.020013, 0.055915, 0.005694, 184.772583, -6.724380, 28.347733
1773751102.732860, 0.370054, 0.103100, -9.922619, -0.012723, 0.048872, -0.021795, 184.978302, -6.707764, 28.376663
1773751102.742003, 0.224307, -0.038607, -9.954193, -0.010840, 0.049867, -0.036382, 184.945572, -6.480179, 28.342957
1773751102.752862, 0.115071, -0.009278, -9.957335, -0.010341, 0.050598, -0.041521, 185.049286, -6.728485, 28.328629
1773751102.762859, 0.157419, 0.191386, -9.904962, -0.001854, 0.012761, -0.039274, 185.005264, -6.859421, 28.309937
1773751102.773065, 0.211887, 0.305111, -9.859023, 0.001504, -0.012598, -0.039069, 185.056015, -6.758606, 28.585266
1773751102.782886, 0.252738, 0.284461, -9.842862, -0.008201, -0.034620, -0.039934, 185.231552, -6.859604, 28.257248
1773751102.792860, 0.178368, 0.296282, -9.690980, -0.018013, -0.026669, -0.045326, 185.088837, -6.718201, 28.389999
1773751102.802847, 0.156671, 0.152630, -9.596409, -0.024555, 0.032539, -0.034994, 184.990189, -6.620621, 28.389221
1773751102.812858, 0.290297, 0.125845, -9.754426, -0.014295, 0.057311, -0.010962, 185.178314, -6.862732, 28.464706
1773751102.823043, 0.401927, 0.214431, -9.871742, -0.022570, 0.060444, -0.002855, 185.141296, -6.867294, 28.443237
1773751102.832859, 0.462829, 0.233584, -9.868600, -0.024014, 0.038108, 0.008905, 184.943176, -6.404251, 28.443665
1773751102.841961, 0.495001, 0.152032, -9.825055, -0.024014, 0.038108, 0.008905, 185.004807, -6.731018, 28.745514
1773751102.852858, 0.408960, 0.160262, -9.816077, -0.011292, 0.042424, 0.005033, 185.090149, -6.762619, 28.469940
1773751102.862642, 0.233734, 0.203806, -9.880122, -0.011292, 0.042424, 0.005033, 185.044189, -6.530472, 28.243469
1773751102.872919, 0.181959, 0.162357, -9.885659, 0.008239, 0.027352, -0.007670, 184.949478, -6.670700, 28.611664
1773751102.882896, 0.177769, -0.019603, -9.857078, 0.008239, 0.027352, -0.007670, 185.018341, -6.669464, 28.497833
1773751102.891894, 0.056713, 0.065392, -9.824756, 0.006249, 0.042511, -0.035744, 185.055756, -6.756454, 28.370987
1773751102.902847, 0.071976, 0.157269, -9.759215, -0.001573, 0.040953, -0.054256, 185.057770, -6.594131, 28.233215
1773751102.912872, 0.091279, 0.170587, -9.748890, -0.022446, 0.029003, -0.064017, 185.064117, -6.611786, 28.277374
1773751102.922880, 0.108188, 0.158915, -9.705345, -0.047638, -0.004991, -0.070917, 185.067307, -6.637589, 28.172485
1773751102.932145, 0.168193, 0.081104, -9.739762, -0.060398, -0.004365, -0.070288, 185.118958, -6.542053, 28.303940
1773751102.941998, 0.175824, 0.162357, -9.731981, -0.055070, 0.010640, -0.074377, 185.090134, -6.625671, 28.144638
1773751102.952879, 0.222212, 0.206051, -9.816376, -0.030484, -0.011063, -0.096518, 184.967209, -6.711548, 28.376312
1773751102.962857, 0.283114, 0.360028, -9.928754, 0.006107, -0.024002, -0.105933, 185.031158, -6.761169, 28.199860
1773751102.973053, 0.227150, 0.582689, -9.815479, 0.019777, -0.005077, -0.102670, 185.066742, -6.751480, 28.297668
1773751102.982873, 0.228048, 0.631471, -9.745299, 0.026432, 0.008919, -0.092824, 185.066742, -6.751480, 28.297668
1773751102.992855, 0.209044, 0.460435, -9.778967, 0.022915, -0.008271, -0.081959, 185.063049, -6.916824, 28.115555
1773751103.002555, 0.233435, 0.328903, -9.814132, 0.019343, -0.020528, -0.079845, 185.042786, -6.567993, 28.190857
1773751103.012870, 0.220865, 0.219818, -9.877578, 0.007356, -0.017056, -0.087137, 185.043732, -6.772934, 28.220093
1773751103.022934, 0.207847, 0.180463, -9.889549, 0.000919, -0.008738, -0.085663, 185.186142, -6.791275, 28.092087
1773751103.032859, 0.279373, 0.369605, -9.877877, -0.006723, 0.006316, -0.070709, 185.025696, -6.811279, 28.259613
1773751103.042047, 0.276979, 0.493355, -9.890447, 0.005543, 0.010101, -0.051961, 185.204727, -6.691498, 28.125046
1773751103.051964, 0.255581, 0.568024, -9.797971, 0.004019, 0.004791, -0.031437, 185.194412, -6.791321, 27.983002
1773751103.062854, 0.283563, 0.654814, -9.776722, 0.017604, 0.015822, -0.006126, 185.134796, -6.982193, 28.139694
1773751103.073056, 0.270096, 0.317830, -9.806650, 0.026908, 0.020881, 0.002269, 184.998947, -6.670395, 28.259979
1773751103.082870, 0.244358, 0.044143, -9.800365, 0.018806, 0.011496, 0.001556, 185.350998, -6.996750, 28.195511
1773751103.092853, 0.275184, 0.089932, -9.718962, -0.000240, -0.051692, 0.005531, 185.347015, -6.931610, 28.221130
1773751103.102843, 0.286556, 0.079906, -9.672126, -0.007530, -0.123726, 0.007168, 185.157562, -6.687302, 28.248001
1773751103.112878, 0.210690, 0.085892, -9.838224, -0.005047, -0.094792, 0.005137, 185.195267, -6.862915, 28.330841
1773751103.123065, 0.177620, 0.107889, -9.920075, 0.005536, -0.023452, 0.003040, 185.135635, -6.929367, 28.276566
1773751103.132857, 0.155623, 0.107889, -9.886108, 0.011334, 0.051128, 0.003049, 185.181046, -6.801315, 28.467957
1773751103.142120, 0.204405, 0.092626, -9.848399, 0.021383, 0.065229, 0.002793, 185.227676, -7.040024, 28.181244
1773751103.152870, 0.246752, 0.092027, -9.761011, 0.021465, 0.031855, 0.003035, 185.131195, -7.005005, 28.266647
1773751103.162873, 0.208445, 0.088286, -9.745897, 0.014390, 0.037481, 0.002365, 185.025757, -6.863571, 28.183884
1773751103.172887, 0.203956, 0.083647, -9.807847, 0.005774, 0.056932, 0.001661, 185.184875, -6.824188, 28.155121
1773751103.182580, 0.237774, 0.088436, -9.793332, 0.005137, 0.032485, 0.003312, 185.192886, -7.077606, 28.409805
1773751103.192052, 0.271892, 0.073472, -9.712378, -0.017650, -0.050271, 0.003296, 184.987686, -6.927597, 28.181763
1773751103.202842, 0.264110, 0.097115, -9.742904, -0.022112, -0.088465, 0.004677, 185.060593, -6.947220, 28.460556
1773751103.212870, 0.169390, 0.099060, -9.939379, -0.016732, -0.018441, 0.004329, 185.109680, -7.024796, 28.139114
1773751103.222899, 0.182259, 0.110133, -10.030508, 0.014020, 0.023050, 0.002074, 184.906387, -6.896164, 27.993378
1773751103.232855, 0.224456, 0.099060, -9.824307, 0.016054, 0.010480, 0.003472, 184.802490, -6.806732, 28.612701
1773751103.242111, 0.207697, 0.087837, -9.698462, 0.017604, 0.014182, 0.004073, 185.264404, -7.135117, 28.143265
1773751103.252942, 0.207697, 0.100556, -9.748740, 0.024574, 0.027342, 0.003414, 185.031677, -7.073883, 27.994949
1773751103.262853, 0.215927, 0.089034, -9.785252, 0.030679, 0.028496, -0.000988, 185.057007, -6.817291, 28.248825
1773751103.272940, 0.193481, 0.103998, -9.916334, 0.083930, 0.049306, -0.000707, 185.103745, -7.026886, 28.271942
1773751103.282872, 0.198120, 0.030676, -9.331251, -0.031968, 0.060503, 0.005554, 185.103745, -7.026886, 28.271942
1773751103.292853, 0.200514, 0.001347, -9.598654, -0.039138, 0.062996, 0.000726, 185.237213, -7.067108, 28.056458
1773751103.302853, 0.403423, 0.108637, -10.276811, -0.010388, -0.106538, 0.006622, 185.046951, -6.840469, 28.409225
1773751103.312095, 0.211288, 0.036063, -10.003274, -0.019449, -0.032583, 0.003111, 184.944855, -6.705948, 28.451050
1773751103.322904, 0.156970, 0.038457, -10.148273, -0.067987, 0.041912, 0.002109, 185.019272, -7.004120, 28.051666
1773751103.332921, 0.291045, 0.107141, -10.151265, -0.041465, -0.018483, 0.002565, 185.064819, -7.001984, 28.350220
1773751103.342864, 0.278176, 0.103549, -9.877578, -0.022401, -0.048803, 0.003441, 184.995010, -6.915359, 28.183746
1773751103.352854, 0.208595, 0.077961, -9.598205, -0.029047, -0.023962, 0.001372, 185.109543, -7.080276, 28.202972