SamplingTime, AccelerationX, AccelerationY, AccelerationZ, GyroX, GyroY, GyroZ, MagneticFieldX, MagneticFieldY, MagneticFieldZ
1773750505.036739, , , , , , , , , 
1773750505.046760, , , , , , , , , 
1773750505.056754, 0.136619, -0.098910, -9.814431, 0.000458, 0.018296, 0.003378, 229.030945, -35.612732, 29.037064
1773750505.065813, 0.111779, -0.107141, -9.812785, -0.003344, 0.014030, 0.003888, 228.920227, -35.486252, 28.775986
1773750505.076755, 0.143502, -0.105345, -9.801562, 0.001211, 0.005619, 0.004263, 228.913712, -35.506500, 28.703827
1773750505.086767, 0.130484, -0.117914, -9.795427, 0.001990, -0.004999, 0.003176, 228.997177, -35.554596, 28.766907
1773750505.096823, 0.136469, -0.102651, -9.790340, 0.000390, -0.018021, 0.004672, 228.848129, -35.545578, 28.722672
1773750505.106773, 0.130334, -0.096217, -9.796475, -0.000995, -0.018691, 0.001745, 229.012299, -35.580017, 28.938446
1773750505.115923, 0.143802, -0.113276, -9.821015, -0.002302, -0.015638, 0.002963, 228.954315, -35.484085, 28.577667
1773750505.126758, 0.123750, -0.103400, -9.814132, -0.001971, -0.009062, 0.005595, 229.030487, -35.762619, 28.613297
1773750505.136751, 0.112527, -0.109984, -9.807697, -0.001353, -0.004442, 0.001978, 228.952499, -35.653809, 28.650131
1773750505.146774, 0.118363, -0.098013, -9.817574, -0.000728, -0.001512, 0.001528, 228.869965, -35.558945, 29.051285
1773750505.156901, 0.118513, -0.110283, -9.805303, -0.000746, 0.003692, 0.001957, 228.869965, -35.558945, 29.051285
1773750505.166813, 0.126444, -0.106243, -9.823409, 0.000940, -0.005277, 0.002113, 228.754898, -35.656052, 28.796997
1773750505.176757, 0.123002, -0.099808, -9.811438, 0.001078, 0.003595, -0.000002, 228.979172, -35.578888, 28.411728
1773750505.186956, 0.130334, -0.093374, -9.817723, -0.003329, 0.007792, 0.001361, 228.922546, -35.563446, 28.819412
1773750505.196884, 0.126743, -0.099060, -9.821464, -0.001148, -0.004948, 0.002974, 228.953949, -35.658585, 28.836746
1773750505.206156, 0.140809, -0.106991, -9.805303, 0.000879, -0.012135, 0.002261, 229.017029, -35.660553, 28.730774
1773750505.215800, 0.125696, -0.110133, -9.820417, -0.001289, -0.009808, 0.003045, 228.782227, -35.656204, 28.254578
1773750505.226782, 0.125247, -0.101305, -9.819818, -0.003131, -0.002406, 0.002096, 228.845718, -35.536636, 28.626419
1773750505.236745, 0.111330, -0.093224, -9.825654, -0.005523, 0.002705, 0.002215, 228.838623, -35.551010, 28.846039
1773750505.246902, 0.113276, -0.111630, -9.825355, -0.001529, 0.002078, 0.002177, 228.983398, -35.627838, 28.778107
1773750505.256809, 0.108936, -0.107141, -9.802460, 0.000188, -0.004366, 0.001547, 228.800674, -35.417603, 28.854324
1773750505.265763, 0.112228, -0.109385, -9.809493, -0.001910, -0.002422, 0.002231, 228.897247, -35.550156, 28.520172
1773750505.276943, 0.095768, -0.101005, -9.824158, -0.001450, 0.004142, 0.003209, 228.919434, -35.567657, 28.907791
1773750505.286757, 0.111630, -0.109086, -9.814730, -0.000918, 0.011506, 0.004757, 228.912537, -35.582596, 28.799271
1773750505.296898, 0.118513, -0.104447, -9.800814, -0.000999, 0.010181, 0.002948, 228.898499, -35.370468, 28.759583
1773750505.306930, 0.092326, -0.099509, -9.811438, -0.002201, 0.012615, 0.002635, 228.763245, -35.312256, 28.940018
1773750505.315979, 0.106093, -0.102801, -9.811438, 0.000229, 0.006508, 0.004026, 228.646240, -35.374405, 28.602478
1773750505.326947, 0.128389, -0.112378, -9.813533, -0.001035, 0.000981, 0.003145, 228.935623, -35.550232, 28.779312
1773750505.336765, 0.102502, -0.098910, -9.818471, -0.001981, 0.006546, 0.003430, 228.774124, -35.673080, 28.881668
1773750505.346771, 0.105794, -0.105644, -9.799617, -0.001162, 0.001831, 0.002438, 228.756531, -35.406265, 28.804688
1773750505.356824, 0.116867, -0.104746, -9.812935, -0.003657, -0.000582, 0.000917, 228.865936, -35.430756, 28.641998
1773750505.365903, 0.098611, -0.102951, -9.807997, -0.000029, 0.002627, 0.003959, 228.653748, -35.350845, 28.640366
1773750505.376773, 0.107739, -0.120458, -9.812935, 0.000124, 0.010403, 0.001884, 228.764160, -35.403839, 28.580811
1773750505.386777, 0.084845, -0.102053, -9.808446, 0.000030, 0.005936, 0.003015, 228.718323, -35.411530, 28.645416
1773750505.396810, 0.117316, -0.094870, -9.806949, 0.001343, 0.005699, 0.004046, 228.700378, -35.531845, 28.811234
1773750505.406752, 0.121805, -0.104148, -9.819369, 0.000265, -0.001052, 0.004741, 228.971710, -35.500092, 28.850815
1773750505.415848, 0.125696, -0.108637, -9.807697, -0.003221, -0.004538, 0.002263, 228.790024, -35.671844, 28.824631
1773750505.425888, 0.123002, -0.106093, -9.820417, 0.000141, -0.003672, 0.002524, 228.790024, -35.671844, 28.824631
1773750505.436618, 0.109834, -0.107889, -9.804555, -0.003634, -0.003404, 0.001915, 228.827713, -35.567810, 28.643600
1773750505.446767, 0.103699, -0.106243, -9.800964, 0.000227, -0.005025, 0.002574, 228.827713, -35.567810, 28.643600
1773750505.456826, 0.090531, -0.107290, -9.822661, -0.002531, 0.000362, 0.005810, 228.934372, -35.491486, 28.313690
1773750505.465792, 0.099958, -0.115969, -9.810092, 0.000411, -0.000006, 0.003680, 228.919342, -35.681503, 28.904327
1773750505.476827, 0.091429, -0.105495, -9.799318, -0.000930, -0.010692, 0.004285, 229.030685, -35.551270, 28.819534
1773750505.486775, 0.109385, -0.109535, -9.793632, -0.002653, -0.006779, 0.003475, 228.891251, -35.524109, 28.743713
1773750505.496925, 0.085443, -0.106692, -9.832388, -0.001681, 0.006997, 0.003439, 228.835236, -35.663147, 28.950302
1773750505.506779, 0.093524, -0.097414, -9.838972, 0.000771, 0.017195, 0.001286, 228.868759, -35.565109, 28.668945
1773750505.515785, 0.094571, -0.093524, -9.819818, 0.000096, 0.012038, 0.002450, 228.837418, -35.534302, 28.553711
1773750505.526773, 0.114173, -0.113276, -9.810989, -0.002550, -0.001228, 0.004242, 228.886169, -35.549591, 28.475128
1773750505.536398, 0.111480, -0.100257, -9.817574, -0.002791, -0.011677, 0.002729, 228.819565, -35.642654, 28.514984
1773750505.545995, 0.118663, -0.109086, -9.815628, -0.002614, -0.019952, 0.004433, 228.851196, -35.523682, 28.072479
1773750505.556767, 0.108038, -0.109834, -9.801263, -0.001046, 0.001304, 0.003732, 228.791245, -35.567459, 28.284958
1773750505.565800, 0.086939, -0.104148, -9.825355, 0.000909, 0.011977, 0.002493, 228.860382, -35.556808, 28.810760
1773750505.576756, 0.100407, -0.103400, -9.797073, -0.001452, 0.000657, 0.004621, 228.811188, -35.437317, 28.556915
1773750505.586766, 0.104896, -0.090680, -9.797821, -0.000624, 0.003294, 0.000589, 229.034378, -35.505508, 28.719009
1773750505.596744, 0.091728, -0.097414, -9.822063, -0.000937, 0.014497, 0.001788, 228.820786, -35.601227, 28.613068
1773750505.606384, 0.094870, -0.117914, -9.816376, -0.001803, 0.028763, 0.004745, 228.978653, -35.813339, 28.646713
1773750505.615796, 0.110582, -0.256778, -9.829096, 0.000990, 0.018169, 0.025998, 228.901688, -35.470001, 28.525024
1773750505.626752, 0.180313, -2.162263, -9.768642, -0.005508, 0.042041, 0.033864, 228.843597, -35.529205, 28.819443
1773750505.636743, 0.123451, -0.628478, -9.785252, -0.000531, 0.012950, -0.015903, 228.802200, -35.421097, 28.773544
1773750505.646843, 0.001945, 0.969203, -9.853935, 0.000988, -0.003744, -0.023387, 228.960205, -35.404312, 28.445343
1773750505.656769, 0.065990, -0.114922, -9.802460, -0.003264, -0.013646, -0.026738, 228.837860, -35.411942, 28.776367
1773750505.665809, -0.012869, -0.828394, -9.759065, -0.006695, 0.004646, -0.051736, 228.962067, -35.454193, 28.730087
1773750505.676773, -0.108338, -0.430657, -9.841815, -0.002242, 0.023881, -0.061894, 228.899628, -35.351425, 28.952866
1773750505.686831, -0.038607, -0.061501, -9.825953, 0.001762, -0.021461, -0.046510, 228.859238, -35.378998, 28.424042
1773750505.696833, 0.131382, -0.013916, -9.774478, -0.000917, -0.011367, -0.016123, 228.630569, -35.227829, 28.654327
1773750505.706750, 0.195726, -0.190938, -9.824906, -0.005966, 0.020224, 0.010781, 228.683594, -35.116928, 28.507721
1773750505.715816, 0.103400, -0.176572, -9.813533, -0.002304, 0.031867, 0.022266, 228.683594, -35.116928, 28.507721
1773750505.726741, 0.123152, -0.130634, -9.803508, 0.000844, 0.029098, 0.029309, 228.738495, -35.103287, 28.819122
1773750505.736790, 0.110881, -0.186149, -9.809044, -0.000205, 0.012021, 0.025060, 228.771866, -35.073364, 28.867706
1773750505.746790, 0.069133, -0.179415, -9.796774, -0.003857, -0.012279, 0.021161, 228.771866, -35.073364, 28.867706
1773750505.756663, 0.080505, -0.262913, -9.803508, -0.000546, -0.054953, 0.018649, 228.654572, -35.102020, 28.768448
1773750505.765834, 0.080505, -0.262913, -9.803508, -0.000546, -0.054953, 0.018649, 228.697586, -35.196014, 28.888550
1773750505.776755, 0.095768, -0.194828, -9.809044, -0.000813, -0.025914, 0.013615, 228.409363, -35.091980, 28.855606
1773750505.786764, 0.140510, -0.242862, -9.809643, -0.003017, -0.008450, 0.005464, 228.496323, -35.082352, 28.986099
1773750505.796741, 0.158616, -0.310199, -9.806351, 0.000501, -0.001359, -0.001447, 228.549744, -34.965088, 29.038315
1773750505.806399, 0.112228, -0.271742, -9.829096, 0.000581, 0.014106, -0.003063, 228.528122, -35.078659, 29.073044
1773750505.815897, 0.112228, -0.271742, -9.829096, 0.000581, 0.014106, -0.003063, 228.462906, -34.783905, 29.193954
1773750505.826749, 0.068085, -0.244957, -9.823409, -0.002247, 0.070998, -0.015805, 228.458923, -34.766190, 28.974884
1773750505.836742, 0.061651, -0.158017, -9.797672, -0.004348, 0.013140, -0.015353, 228.343185, -34.798645, 29.186935
1773750505.846749, 0.178817, -0.206799, -9.787945, 0.000796, -0.007354, -0.002971, 228.575516, -34.788925, 29.445938
1773750505.856686, 0.175226, -0.254234, -9.806500, -0.001407, 0.004891, 0.008409, 228.650024, -34.672852, 29.120712
1773750505.865799, 0.175226, -0.254234, -9.806500, -0.001407, 0.004891, 0.008409, 228.481339, -34.888397, 29.375763
1773750505.876742, 0.135422, -0.169539, -9.807099, -0.004510, 0.000470, 0.040941, 228.444870, -34.555557, 29.367859
1773750505.886758, 0.135422, -0.169539, -9.807099, -0.004510, 0.000470, 0.040941, 228.356232, -34.529282, 29.167191
1773750505.896746, 0.127042, -0.160112, -9.797522, -0.001116, 0.004803, 0.052428, 228.363281, -34.649704, 29.360260
1773750505.906652, 0.101454, -0.121805, -9.826851, -0.004722, 0.002859, 0.058075, 228.486832, -34.401016, 29.492081
1773750505.915827, 0.073173, -0.209642, -9.795427, -0.001295, 0.006260, 0.053592, 228.366425, -34.518448, 29.529144
1773750505.926790, 0.051475, -0.221613, -9.820716, 0.000072, 0.031662, 0.047775, 228.192780, -34.671265, 29.215302
1773750505.936774, 0.063446, -0.224756, -9.842264, 0.000902, 0.017814, 0.042577, 228.319855, -34.407578, 29.559799
1773750505.946759, 0.132130, -0.148590, -9.805752, -0.000125, 0.013488, 0.047494, 228.179916, -34.481644, 29.508087
1773750505.956735, 0.181660, -0.114772, -9.824008, -0.001225, 0.030991, 0.035564, 228.210754, -34.457825, 29.724319
1773750505.965815, 0.129885, -0.117316, -9.811588, -0.000213, 0.036479, 0.023475, 228.228989, -34.215149, 29.646942
1773750505.976321, 0.106841, -0.193481, -9.798719, -0.000949, 0.017761, 0.011113, 228.240921, -34.244385, 29.512268
1773750505.986759, 0.152930, -0.131980, -9.793033, -0.004638, 0.005267, 0.002956, 228.252426, -34.177307, 29.795441
1773750505.996813, 0.137816, -0.097414, -9.818022, -0.000253, 0.005672, -0.004794, 228.137451, -34.113953, 29.657043
1773750506.006163, 0.116418, -0.133477, -9.804405, -0.002561, 0.017253, -0.001350, 228.290665, -33.909744, 29.803375
1773750506.015837, 0.176123, -0.156521, -9.819220, -0.003184, 0.011177, 0.010125, 228.290665, -33.909744, 29.803375
1773750506.026745, 0.172981, -0.192584, -9.819519, -0.002172, 0.001549, 0.023425, 228.203827, -34.064804, 29.657608
1773750506.035896, 0.072874, -0.168791, -9.812486, -0.003581, 0.008658, 0.037779, 228.203827, -34.064804, 29.657608
1773750506.046939, 0.043096, -0.160262, -9.830293, -0.003815, 0.019368, 0.053474, 228.127106, -33.956528, 29.580643
1773750506.056827, 0.002843, -0.206650, -9.819519, -0.003102, 0.034565, 0.059945, 228.053757, -33.890488, 29.614578
1773750506.065812, 0.011522, -0.162058, -9.823559, 0.000028, 0.032872, 0.060056, 228.062881, -33.882645, 29.929855
1773750506.076771, 0.021249, -0.178518, -9.809493, 0.000001, 0.017772, 0.051242, 228.112045, -33.673828, 29.946243
1773750506.086758, -0.012719, -0.174178, -9.800664, -0.002067, 0.007490, 0.033253, 228.118866, -33.756973, 29.869537
1773750506.096741, -0.046537, -0.174777, -9.804555, 0.002424, 0.001065, 0.025250, 228.085251, -33.698441, 29.784195
1773750506.106733, 0.000150, -0.174627, -9.819070, 0.001047, -0.005508, 0.024771, 228.014404, -33.658432, 29.803543
1773750506.115845, 0.065691, -0.224905, -9.809942, -0.003741, -0.006334, 0.023771, 227.980103, -33.776169, 29.372925
1773750506.126761, 0.149189, -0.226851, -9.808745, -0.001088, -0.004254, 0.024529, 228.004639, -33.780960, 29.624161
1773750506.136278, 0.238073, -0.149488, -9.814730, -0.000169, 0.000636, 0.033429, 228.214767, -33.488174, 29.785995
1773750506.146833, 0.299724, -0.118214, -9.838822, -0.001436, 0.008676, 0.046739, 228.289276, -33.329437, 29.870377
1773750506.156833, 0.259172, -0.120458, -9.803059, -0.005837, 0.030332, 0.060138, 228.141098, -33.594040, 29.962997
1773750506.165904, 0.193481, -0.180762, -9.818771, -0.003206, 0.013517, 0.057251, 228.220947, -33.461395, 29.772430
1773750506.176834, 0.155025, -0.091429, -9.799018, 0.000777, 0.016535, 0.065439, 228.172180, -33.385849, 29.885361
1773750506.186835, 0.119411, -0.171485, -9.798420, -0.002060, 0.029856, 0.070661, 228.087250, -33.518051, 29.841339
1773750506.196742, 0.048931, -0.170437, -9.821165, -0.001743, 0.026886, 0.067392, 228.376160, -33.453506, 29.690109
1773750506.206924, 0.024092, -0.211588, -9.778967, -0.004206, 0.012698, 0.057187, 228.271317, -33.188660, 29.905472
1773750506.216026, 0.089334, -0.272939, -9.809942, -0.000100, -0.005846, 0.045347, 228.532547, -33.314758, 29.921783
1773750506.226946, 0.193631, -0.243011, -9.808296, -0.002142, -0.008513, 0.045246, 228.397125, -33.291214, 30.040237
1773750506.236856, 0.175974, -0.301669, -9.800515, -0.002215, 0.001135, 0.042188, 228.328110, -33.203064, 29.852280
1773750506.246929, 0.143802, -0.260070, -9.824457, -0.002632, 0.009044, 0.047211, 228.683472, -33.276627, 30.084549
1773750506.256803, 0.152630, -0.224307, -9.829694, -0.000116, 0.013448, 0.045020, 228.500610, -33.196106, 30.132843
1773750506.265848, 0.131681, -0.214431, -9.814431, 0.002992, 0.015972, 0.046153, 228.588272, -32.970581, 30.256790
1773750506.276766, 0.154875, -0.173131, -9.821763, -0.001258, 0.028138, 0.044938, 228.583298, -32.939758, 30.117020
1773750506.286764, 0.120458, -0.120758, -9.808296, -0.001683, 0.028567, 0.048380, 228.786209, -33.098495, 29.549530
1773750506.296749, 0.061501, -0.147393, -9.802460, 0.004220, 0.013546, 0.054069, 228.868301, -33.064072, 29.892914
1773750506.306924, 0.015263, -0.120309, -9.821763, 0.001677, 0.017755, 0.058342, 228.957779, -32.902390, 29.670151
1773750506.316055, 0.002993, -0.133926, -9.803508, 0.001800, 0.015811, 0.054512, 228.957779, -32.902390, 29.670151
1773750506.326821, 0.060304, -0.124947, -9.819070, 0.000554, 0.010806, 0.049432, 229.213486, -33.126862, 29.746933
1773750506.336812, 0.098312, -0.100407, -9.815928, -0.003857, 0.006908, 0.042763, 229.213486, -33.126862, 29.746933
1773750506.346774, 0.110582, -0.077363, -9.814730, -0.003148, 0.004973, 0.035727, 229.192764, -33.061188, 29.798157
1773750506.356763, 0.073472, -0.105195, -9.808146, -0.004393, 0.001607, 0.026651, 229.314484, -33.157227, 29.775192
1773750506.366036, 0.129287, 0.006285, -9.832837, -0.002177, 0.010555, 0.025578, 229.299301, -33.123978, 29.783844
1773750506.376946, 0.189890, -0.039205, -9.815329, -0.002496, 0.006648, 0.033054, 229.436279, -32.987518, 30.041733
1773750506.386825, 0.247950, -0.080206, -9.809942, 0.003604, 0.005736, 0.040368, 229.419479, -33.126587, 29.876419
1773750506.396751, 0.246453, 0.037858, -9.819818, 0.000996, 0.013795, 0.041416, 229.520615, -33.267624, 29.922150
1773750506.406924, 0.180463, 0.017358, -9.781960, -0.000498, 0.011893, 0.028582, 229.727386, -33.118256, 29.999634
1773750506.416074, 0.120758, -0.020351, -9.808595, -0.002599, 0.004881, 0.026095, 229.604553, -33.254593, 30.272278
1773750506.426816, 0.144700, 0.024541, -9.839720, -0.001138, 0.004435, 0.024924, 229.532150, -32.962463, 30.189301
1773750506.436846, 0.121356, 0.023792, -9.815778, -0.000341, 0.012049, 0.024995, 229.402527, -32.915115, 30.367737
1773750506.446914, 0.064793, 0.027384, -9.811139, -0.000510, 0.011523, 0.023233, 229.583908, -32.913040, 30.430084
1773750506.456772, 0.063895, 0.061800, -9.819220, -0.005967, 0.011931, 0.016518, 229.488831, -32.951431, 30.456055
1773750506.465909, 0.084845, 0.021398, -9.792584, -0.000532, 0.016248, 0.004108, 229.408875, -32.886810, 30.144440
1773750506.476916, 0.139163, -0.093374, -9.815329, -0.000810, 0.008434, -0.001015, 229.448730, -32.735916, 30.031769
1773750506.486762, 0.206650, -0.058658, -9.818172, -0.001973, 0.015667, -0.001476, 229.409241, -32.744980, 30.511368
1773750506.496862, 0.257676, -0.002993, -9.829395, -0.003780, 0.000913, 0.003654, 229.256760, -32.504013, 30.456955
1773750506.506875, 0.252439, -0.024391, -9.801413, -0.000515, 0.000344, 0.004277, 229.176361, -32.426422, 30.383224
1773750506.516085, 0.161609, -0.056413, -9.822512, -0.002203, 0.015427, 0.001021, 229.204895, -32.718002, 30.401871
1773750506.526953, 0.099659, 0.016759, -9.815030, -0.002474, 0.024342, -0.001930, 229.082748, -32.798492, 30.622360
1773750506.536924, 0.075417, 0.050129, -9.842862, 0.001679, 0.023313, 0.003532, 229.154053, -32.655960, 30.642395
1773750506.546922, 0.032920, 0.007781, -9.799467, -0.000091, 0.026463, 0.002839, 229.070038, -32.517044, 30.657516
1773750506.556772, -0.040851, 0.029928, -9.807398, -0.000466, 0.018819, -0.001595, 229.004044, -32.428574, 30.698364
1773750506.565876, 0.016310, -0.061202, -9.787047, -0.002377, 0.014915, -0.010670, 229.006897, -32.344421, 30.863174
1773750506.576837, 0.073023, -0.055516, -9.822512, -0.004243, 0.001499, -0.022502, 228.885849, -32.421173, 30.726059
1773750506.586760, 0.141108, -0.046088, -9.800216, -0.001477, 0.012169, -0.026416, 228.845016, -32.349716, 30.693115
1773750506.596742, 0.202310, -0.079906, -9.822811, -0.000178, 0.009591, -0.024420, 228.904938, -32.097565, 30.983322
1773750506.606734, 0.240019, -0.075866, -9.821913, 0.001121, 0.007326, -0.011285, 228.885956, -32.130737, 30.994980
1773750506.615896, 0.253785, 0.009876, -9.834632, -0.000268, 0.018590, -0.006807, 228.885956, -32.130737, 30.994980
1773750506.626765, 0.153079, -0.000150, -9.817873, -0.000758, 0.016872, 0.001605, 228.812668, -32.072205, 30.888351
1773750506.635851, 0.117914, -0.039055, -9.807997, -0.001107, 0.023926, -0.003498, 228.749634, -32.145004, 30.868317
1773750506.646766, 0.081852, -0.068983, -9.816376, -0.002377, 0.013261, -0.011252, 228.683014, -31.972290, 31.204102
1773750506.656773, 0.072724, 0.000599, -9.810391, -0.001188, 0.006469, -0.020365, 228.733978, -32.047394, 31.070755
1773750506.665894, 0.037409, 0.049380, -9.823858, 0.000648, 0.011869, -0.022828, 228.682465, -32.031723, 30.989197
1773750506.676939, 0.086191, -0.049380, -9.815628, -0.002626, 0.008475, -0.019232, 228.648315, -31.803070, 30.697830
1773750506.686946, 0.152630, -0.020650, -9.816825, 0.001873, 0.015669, -0.012026, 228.478745, -32.196487, 30.836472
1773750506.696812, 0.191985, 0.036212, -9.839570, 0.001108, 0.013950, -0.008256, 228.475510, -31.905502, 30.923553
1773750506.706830, 0.095768, -0.009577, -9.796774, -0.000444, 0.017885, -0.009100, 228.597595, -31.792572, 31.464722
1773750506.716105, 0.131831, 0.037709, -9.819070, 0.000876, 0.014173, -0.009862, 228.552780, -31.858536, 30.792740
1773750506.726947, 0.147842, -0.039504, -9.804256, -0.002550, 0.004258, -0.005444, 228.458481, -31.881592, 30.996811
1773750506.736866, 0.169090, -0.023493, -9.810092, 0.002583, -0.003012, -0.004662, 228.260025, -31.523438, 31.035767
1773750506.746854, 0.159963, -0.073921, -9.812336, -0.001679, 0.009799, -0.000824, 228.317123, -31.603226, 30.858414
1773750506.756818, 0.204704, -0.082001, -9.819369, 0.003623, -0.000229, 0.007428, 228.307419, -31.656937, 31.066666
1773750506.766014, 0.215329, -0.082001, -9.810391, -0.000192, 0.011137, 0.006857, 228.468964, -31.719254, 31.044510
1773750506.776861, 0.106392, -0.100556, -9.817873, -0.000225, 0.021738, 0.003415, 228.345291, -31.567917, 31.093170
1773750506.786795, -0.001646, -0.120758, -9.807398, -0.001794, 0.005910, 0.000184, 228.459412, -31.698792, 31.306061
1773750506.796755, -0.007033, -0.077812, -9.808895, -0.001075, 0.003299, 0.009073, 228.402603, -31.754028, 30.910995
1773750506.806762, 0.038158, -0.159963, -9.802460, 0.001323, -0.004423, 0.015929, 228.365112, -31.723389, 31.012207
1773750506.816111, 0.126444, -0.023343, -9.815179, -0.001872, -0.016475, 0.010488, 228.427002, -31.982193, 30.982697
1773750506.826780, 0.178368, 0.023194, -9.805453, -0.002115, -0.012982, 0.001099, 228.501648, -31.716858, 30.819885
1773750506.836751, 0.235230, -0.027833, -9.825055, -0.001008, -0.002898, -0.004479, 228.423782, -31.674850, 31.399414
1773750506.846802, 0.259771, 0.000748, -9.819220, -0.003623, 0.008080, -0.008680, 228.315109, -31.774918, 31.195358
1773750506.856766, 0.251990, -0.010924, -9.797223, -0.000504, 0.014861, -0.010142, 228.327850, -31.795898, 31.403076
1773750506.866083, 0.195576, -0.044891, -9.821913, -0.000858, 0.017961, -0.009475, 228.253677, -31.510498, 31.241379
1773750506.876869, 0.215628, -0.027384, -9.811289, 0.001802, 0.018095, -0.003237, 228.501251, -31.606857, 31.535034
1773750506.886946, 0.200514, -0.007332, -9.813084, -0.003588, 0.016132, 0.005103, 228.693176, -31.766434, 31.353302
1773750506.896932, 0.185401, 0.023343, -9.815329, -0.001417, 0.008256, 0.009390, 228.450394, -31.456085, 31.200317
1773750506.906853, 0.155174, 0.064793, -9.820866, -0.001851, 0.009311, 0.006707, 228.580338, -31.456818, 31.396423
1773750506.916124, 0.133177, 0.121506, -9.818471, -0.001095, 0.016176, 0.002333, 228.580338, -31.456818, 31.396423
1773750506.926818, 0.118513, 0.086939, -9.800216, -0.001976, 0.008792, -0.001988, 228.627014, -31.671951, 31.013229
1773750506.936925, 0.161908, 0.049979, -9.803957, -0.004172, 0.007861, -0.000479, 228.709473, -31.774704, 30.973511
1773750506.946808, 0.165350, 0.009577, -9.814880, -0.002291, 0.013058, 0.003520, 228.661224, -31.582367, 31.139496
1773750506.956834, 0.151284, -0.007482, -9.822811, 0.001411, 0.005595, 0.004918, 228.575134, -31.814133, 31.206650
1773750506.966111, 0.164901, 0.030376, -9.822362, -0.002071, 0.012970, 0.002871, 228.532791, -31.730286, 31.115189
1773750506.976878, 0.196325, 0.050428, -9.825504, 0.000005, 0.009510, 0.000377, 228.864517, -31.632675, 31.224457
1773750506.986832, 0.180762, 0.022595, -9.807249, -0.000614, -0.003078, 0.000737, 228.742020, -31.753220, 31.113617
1773750506.996745, 0.174926, 0.035314, -9.806650, -0.001692, 0.009890, 0.002520, 228.743622, -31.781006, 31.044220
1773750507.006753, 0.200215, 0.111929, -9.823110, 0.000777, 0.001147, 0.002431, 228.773438, -31.923981, 31.197952
1773750507.016132, 0.210241, 0.073472, -9.821165, -0.001593, 0.000199, 0.007577, 228.763687, -31.864166, 31.205994
1773750507.026766, 0.196474, 0.124947, -9.817274, 0.000436, 0.008598, 0.015905, 228.772354, -31.854568, 31.057343
1773750507.036789, 0.177021, 0.162506, -9.812037, 0.001243, 0.002863, 0.017177, 228.815781, -31.665817, 31.250412
1773750507.046776, 0.168342, 0.177769, -9.827001, 0.000074, 0.009431, 0.015163, 228.667221, -31.816788, 31.192719
1773750507.056952, 0.168193, 0.125097, -9.830742, 0.000570, 0.000720, 0.012749, 228.700592, -31.850891, 30.970322
1773750507.065959, 0.189292, 0.140061, -9.828198, -0.002797, 0.010853, 0.006144, 228.584091, -31.746887, 31.181320
1773750507.076947, 0.177620, 0.170437, -9.824756, 0.001056, 0.013300, 0.004718, 228.631485, -31.747406, 31.302353
1773750507.086947, 0.151284, 0.018854, -9.800216, -0.000018, 0.007873, 0.002261, 228.679886, -31.812057, 31.317093
1773750507.096862, 0.155174, -0.120907, -9.800515, -0.001160, 0.008827, 0.002741, 228.723267, -31.988678, 31.451340
1773750507.106769, 0.164751, -0.095170, -9.814880, 0.000098, 0.007839, 0.000390, 228.967239, -31.910812, 31.529083
1773750507.116132, 0.153379, -0.099210, -9.799467, 0.010373, -0.003813, 0.000858, 228.514816, -31.904297, 31.233459
1773750507.126771, 0.155473, -0.110732, -9.803957, 0.000453, 0.004311, -0.000249, 228.924271, -31.982635, 31.280670
1773750507.136823, 0.163704, -0.105495, -9.853636, -0.000078, -0.038538, 0.004169, 228.732315, -31.804779, 31.177917
1773750507.146773, 0.151284, -0.116568, -9.769091, -0.001181, 0.001322, 0.002144, 228.694290, -31.756516, 30.940323
1773750507.156775, 0.140210, -0.095170, -9.868001, -0.004931, 0.006312, 0.004759, 228.763565, -32.111816, 31.188660
1773750507.166121, 0.151134, -0.110133, -9.800664, -0.003006, 0.015764, 0.002424, 228.813675, -31.800949, 31.211960
1773750507.176897, 0.136320, -0.096816, -9.794380, -0.001238, 0.001189, 0.004130, 228.930145, -31.946823, 31.027908