SamplingTime, AccelerationX, AccelerationY, AccelerationZ, GyroX, GyroY, GyroZ, MagneticFieldX, MagneticFieldY, MagneticFieldZ
1773750930.322219, , , , , , , , , 
1773750930.332208, , , , , , , , , 
1773750930.341986, -0.026635, -0.100706, -9.798121, -0.002033, 0.004094, 0.000964, 228.611801, -38.546143, 25.427048
1773750930.352266, -0.021249, -0.099359, -9.799318, -0.003409, 0.003144, 0.002671, 228.566589, -38.481277, 25.746536
1773750930.361565, -0.021398, -0.098462, -9.816077, 0.000318, 0.002927, 0.003429, 228.659454, -38.389023, 25.880371
1773750930.371484, -0.027234, -0.100257, -9.806201, -0.000432, 0.010282, 0.001348, 228.659454, -38.389023, 25.880371
1773750930.382211, -0.025588, -0.095020, -9.816376, -0.002463, 0.007389, 0.001096, 228.734528, -38.528564, 25.589188
1773750930.391913, -0.021099, -0.099210, -9.813683, -0.002638, 0.005409, 0.003466, 228.734528, -38.528564, 25.589188
1773750930.401300, -0.036811, -0.106542, -9.799767, -0.000136, 0.005175, 0.004419, 228.624146, -38.612442, 25.449448
1773750930.411561, -0.035314, -0.101903, -9.805752, -0.001411, 0.005286, 0.003124, 228.666367, -38.463394, 25.695343
1773750930.422223, -0.045340, -0.092027, -9.821614, -0.000256, 0.006788, 0.003496, 228.607864, -38.542755, 25.764923
1773750930.432234, -0.029479, -0.102053, -9.811588, -0.000014, 0.005146, 0.003169, 228.680679, -38.475128, 25.787796
1773750930.442007, -0.025289, -0.105495, -9.803508, 0.003569, 0.012712, 0.002830, 228.721283, -38.541611, 25.817627
1773750930.451344, -0.033070, -0.098312, -9.819519, -0.000967, 0.012202, 0.003438, 228.618698, -38.482025, 25.904129
1773750930.461564, -0.015712, -0.099210, -9.808595, -0.000309, 0.005669, 0.005112, 228.738739, -38.513046, 25.769333
1773750930.472251, -0.025588, -0.086640, -9.826253, -0.001247, 0.010389, 0.000540, 228.708618, -38.465942, 25.629135
1773750930.482213, -0.032022, -0.097115, -9.797522, 0.000475, 0.006811, 0.002589, 228.758011, -38.662903, 25.638824
1773750930.491909, -0.030526, -0.080655, -9.808745, -0.001962, 0.007189, 0.002019, 228.722031, -38.544662, 25.654846
1773750930.502256, -0.031125, -0.070479, -9.832388, -0.000575, 0.007292, 0.001726, 228.615768, -38.687149, 25.854599
1773750930.511569, -0.036811, -0.102502, -9.806949, 0.001067, 0.004784, 0.003530, 228.725006, -38.460754, 25.671158
1773750930.522099, -0.026187, -0.107739, -9.795427, -0.002297, 0.002073, 0.002104, 228.575073, -38.449463, 25.976044
1773750930.532227, -0.036362, -0.093673, -9.811438, -0.001376, 0.009778, 0.002078, 228.605804, -38.487473, 25.935806
1773750930.541937, -0.023194, -0.090381, -9.806949, -0.002325, 0.000284, 0.000814, 228.529907, -38.469406, 25.823929
1773750930.551221, -0.025289, -0.095170, -9.804106, -0.003311, 0.004929, 0.003352, 228.645950, -38.570068, 25.819092
1773750930.561612, -0.045490, -0.096666, -9.808146, -0.001378, 0.006735, 0.004670, 228.852386, -38.497604, 25.844666
1773750930.572229, -0.025738, -0.093823, -9.802460, -0.003782, 0.004836, 0.001909, 228.673050, -38.563965, 25.830963
1773750930.582240, -0.042048, -0.100108, -9.810690, -0.002304, 0.002525, 0.003194, 228.854172, -38.518509, 25.653305
1773750930.591923, -0.031125, -0.087688, -9.802610, -0.003239, 0.000237, 0.004088, 228.847839, -38.457031, 25.781067
1773750930.602239, -0.032621, -0.086790, -9.813234, 0.003195, 0.002687, 0.002469, 228.776398, -38.449524, 25.695175
1773750930.611598, -0.041899, -0.095918, -9.822212, -0.002086, -0.002120, 0.004070, 228.609924, -38.531357, 25.848953
1773750930.622223, -0.029030, -0.086341, -9.795128, -0.000263, 0.002205, 0.003228, 228.499023, -38.547791, 25.539429
1773750930.632232, -0.032322, -0.094571, -9.810391, -0.005722, -0.007273, 0.002475, 228.572327, -38.355942, 25.706207
1773750930.641951, -0.022595, -0.097115, -9.803208, 0.001330, 0.002776, 0.003464, 228.600464, -38.575714, 25.444138
1773750930.652216, -0.033220, -0.091877, -9.837924, -0.001307, 0.013882, 0.001584, 228.577225, -38.692688, 25.595993
1773750930.661549, -0.037409, -0.095020, -9.806351, -0.004545, 0.004532, 0.000463, 228.789337, -38.729980, 25.523331
1773750930.671849, -0.040103, -0.105794, -9.808745, 0.001042, 0.007640, 0.003041, 228.790085, -38.817047, 25.397598
1773750930.682254, -0.033220, -0.085443, -9.811438, -0.003297, 0.010657, 0.002906, 228.790085, -38.817047, 25.397598
1773750930.691924, -0.028132, -0.077961, -9.817424, -0.001362, 0.005977, 0.002401, 228.724442, -38.608109, 25.587234
1773750930.701234, -0.021099, -0.106692, -9.813683, -0.001150, 0.008258, 0.002690, 228.574753, -38.568741, 25.600021
1773750930.711639, -0.038008, -0.091728, -9.821015, -0.000886, 0.012107, 0.004745, 228.639084, -38.603119, 25.621979
1773750930.722239, -0.032172, -0.096067, -9.798869, -0.001656, 0.002705, 0.003200, 228.628510, -38.681702, 25.439209
1773750930.732227, -0.040402, -0.089783, -9.819968, -0.002879, 0.006667, 0.003545, 228.695938, -38.586929, 25.763779
1773750930.741943, -0.043395, -0.080505, -9.792285, -0.002834, 0.005437, 0.005479, 228.703201, -38.548859, 25.490067
1773750930.752284, -0.031574, -0.096666, -9.818471, -0.003140, 0.007348, 0.005730, 228.609436, -38.516190, 25.713806
1773750930.761568, -0.027384, -0.101305, -9.833884, -0.000490, 0.004863, 0.004046, 228.745422, -38.598679, 25.568344
1773750930.772233, -0.032621, -0.093823, -9.826402, -0.000540, 0.006610, 0.005186, 228.713043, -38.662216, 25.848526
1773750930.782220, -0.033369, -0.095918, -9.830442, -0.001802, 0.010472, 0.002345, 228.681519, -38.624390, 25.576874
1773750930.791928, -0.035763, -0.095319, -9.808745, -0.003395, 0.008342, 0.002004, 228.766922, -38.643982, 25.697784
1773750930.801262, -0.015712, -0.092775, -9.794829, -0.002167, 0.001826, 0.002144, 228.599075, -38.639862, 25.449844
1773750930.811699, -0.052523, -0.095319, -9.818322, 0.000632, 0.008953, -0.000598, 228.814621, -38.825226, 25.246841
1773750930.822212, -0.041001, -0.192434, -9.821165, -0.001441, 0.007661, -0.001923, 228.718323, -38.749069, 25.673874
1773750930.832224, -0.054169, -0.198270, -9.809792, -0.002988, 0.006637, -0.003051, 228.585068, -38.713242, 25.493423
1773750930.841903, -0.058658, -0.316633, -9.811139, -0.005016, 0.005521, -0.007105, 228.716949, -38.500412, 25.667587
1773750930.852214, 0.021099, -0.410007, -9.786000, -0.005513, 0.001192, -0.005960, 228.580750, -38.693878, 25.652496
1773750930.861568, -0.011971, 0.001347, -9.811139, -0.005658, 0.003225, -0.010842, 228.649658, -38.657501, 25.770721
1773750930.872224, -0.061950, -0.093524, -9.807398, -0.003684, 0.001525, -0.014620, 228.638611, -38.487930, 25.493042
1773750930.882219, -0.049231, -0.312892, -9.825205, -0.002462, 0.006276, -0.022269, 228.605591, -38.553955, 25.416489
1773750930.891891, -0.046986, -0.243311, -9.785102, -0.001230, 0.011809, -0.034524, 228.497772, -38.522110, 25.316696
1773750930.902226, -0.017957, -0.117316, -9.838224, -0.000919, 0.012501, -0.037085, 228.436279, -38.243851, 25.693588
1773750930.911593, 0.001047, -0.079757, -9.816975, -0.001297, 0.012225, -0.041279, 228.694366, -38.429718, 25.590973
1773750930.922213, -0.012121, -0.109984, -9.804106, 0.002546, 0.005306, -0.040622, 228.550491, -38.271271, 25.694870
1773750930.932254, -0.033519, -0.124199, -9.798869, 0.000331, 0.003771, -0.034819, 228.640366, -38.455185, 26.101120
1773750930.941936, -0.025887, -0.112228, -9.823409, -0.002025, 0.008707, -0.027804, 228.516296, -38.282623, 25.665771
1773750930.952213, -0.006285, -0.102951, -9.815329, 0.003722, 0.005079, -0.017838, 228.556625, -38.388382, 25.855209
1773750930.961561, 0.001347, -0.149039, -9.819818, -0.001879, 0.006242, -0.014798, 228.556625, -38.388382, 25.855209
1773750930.972217, 0.034117, -0.240617, -9.811738, -0.001955, 0.008941, -0.005470, 228.587143, -38.408676, 25.646408
1773750930.982214, 0.054618, -0.246603, -9.810092, -0.003610, 0.012454, 0.003102, 228.587143, -38.408676, 25.646408
1773750930.991890, 0.034566, -0.262315, -9.811887, -0.001368, 0.015123, 0.006607, 228.453995, -38.357178, 25.615601
1773750931.002273, 0.004788, -0.246603, -9.789142, -0.003059, 0.006105, 0.002342, 228.516968, -38.256943, 26.211472
1773750931.011564, -0.057910, -0.236278, -9.806051, -0.002784, 0.006028, -0.002626, 228.460464, -38.384613, 25.720261
1773750931.022210, -0.100706, -0.324714, -9.839570, -0.002555, 0.013910, -0.012630, 228.348068, -38.283966, 25.831680
1773750931.032241, -0.093374, -0.255431, -9.814132, -0.003222, 0.011870, -0.025071, 228.521378, -38.234726, 25.955048
1773750931.041905, -0.084246, -0.255581, -9.819519, 0.001354, 0.011840, -0.022599, 228.325180, -38.166794, 26.166687
1773750931.052216, -0.105943, -0.249745, -9.805902, 0.003551, 0.016919, -0.017822, 228.478485, -38.225510, 26.175507
1773750931.061566, -0.100257, -0.198270, -9.807548, 0.002127, 0.004286, -0.010955, 228.304092, -38.261581, 25.833557
1773750931.072236, -0.024391, -0.190040, -9.802311, -0.001251, 0.005937, 0.002800, 228.296646, -38.128799, 26.167023
1773750931.082220, 0.011073, -0.230442, -9.813384, 0.000141, 0.012735, 0.011792, 228.220459, -38.197906, 26.111526
1773750931.092213, 0.028730, -0.239869, -9.807099, -0.001757, 0.003859, 0.027485, 228.146103, -38.030930, 26.429581
1773750931.102227, 0.113126, -0.283563, -9.800066, -0.001849, 0.004897, 0.041048, 228.195953, -38.234665, 26.130859
1773750931.112230, 0.091578, -0.324414, -9.827300, -0.003631, -0.000497, 0.042076, 227.932129, -38.028824, 26.090286
1773750931.122210, 0.024541, -0.371700, -9.805902, 0.000513, 0.000397, 0.045494, 227.965668, -37.847809, 26.437424
1773750931.132227, 0.005537, -0.298377, -9.825654, 0.000149, 0.005641, 0.049511, 227.787582, -37.957504, 26.512436
1773750931.142225, -0.002843, -0.317980, -9.793332, -0.000391, 0.003248, 0.046056, 227.559280, -37.812119, 26.531342
1773750931.151651, -0.021099, -0.258125, -9.803508, -0.003992, 0.002586, 0.028978, 227.602615, -37.546143, 26.538406
1773750931.162350, -0.059406, -0.240318, -9.807697, -0.003302, 0.012044, 0.013543, 227.632019, -37.602615, 26.304031
1773750931.172250, -0.083049, -0.232686, -9.819818, -0.001412, 0.012128, 0.007437, 227.484772, -37.696625, 26.371033
1773750931.182211, -0.068684, -0.261417, -9.801263, -0.002683, 0.012706, 0.014612, 227.461777, -37.638641, 26.452896
1773750931.192199, -0.041749, -0.252888, -9.794829, 0.002337, 0.006891, 0.028245, 227.400513, -37.624268, 26.401306
1773750931.202226, 0.014664, -0.268300, -9.810840, -0.001515, 0.010553, 0.037223, 227.288895, -37.677246, 26.469879
1773750931.212264, 0.047585, -0.225055, -9.814132, 0.001596, 0.006082, 0.045978, 227.148788, -37.510254, 26.516418
1773750931.222158, 0.024391, -0.207847, -9.820117, -0.001998, 0.004728, 0.048091, 227.014435, -37.465195, 26.483810
1773750931.232197, -0.048034, -0.207248, -9.829245, -0.004559, -0.003054, 0.037169, 226.954178, -37.518524, 26.814789
1773750931.242221, -0.051924, -0.193631, -9.810989, -0.000797, -0.000836, 0.030857, 227.061325, -37.736877, 26.843613
1773750931.252211, -0.051176, -0.199766, -9.829395, 0.000052, 0.009372, 0.023398, 226.948975, -37.571671, 27.009735
1773750931.262219, -0.045789, -0.205452, -9.800066, 0.002179, 0.014891, 0.019820, 226.933884, -37.456528, 26.839264
1773750931.272254, -0.026486, -0.137218, -9.816676, 0.001714, 0.015717, 0.027790, 226.757568, -37.402069, 27.196411
1773750931.282214, -0.047136, -0.123152, -9.795876, -0.001942, 0.002035, 0.029753, 226.757568, -37.402069, 27.196411
1773750931.292202, -0.115969, -0.078859, -9.798570, -0.001944, -0.003061, 0.029925, 226.580948, -37.242203, 27.212677
1773750931.302225, -0.083797, -0.041150, -9.827899, -0.002857, -0.000218, 0.032762, 226.505875, -37.030670, 27.015625
1773750931.311931, -0.106392, -0.119261, -9.808446, -0.004665, -0.003665, 0.027162, 226.332031, -37.172379, 27.130035
1773750931.322212, -0.092476, -0.135871, -9.823559, -0.002379, 0.005538, 0.026998, 226.078842, -36.827911, 26.981598
1773750931.332211, -0.039355, -0.143502, -9.811738, -0.001461, 0.014649, 0.030153, 226.368729, -36.845184, 27.380524
1773750931.342202, -0.034267, -0.147094, -9.815179, 0.000538, 0.003727, 0.036069, 226.234573, -37.097214, 27.188705
1773750931.352212, 0.019752, -0.137966, -9.801113, 0.001972, -0.001879, 0.050443, 226.167450, -36.942993, 27.510513
1773750931.362227, 0.034566, -0.093374, -9.806500, -0.004917, -0.006345, 0.055727, 225.958099, -36.746536, 27.342651
1773750931.372228, 0.034566, -0.093374, -9.806500, -0.004917, -0.006345, 0.055727, 226.030884, -37.075623, 27.317566
1773750931.382211, 0.040701, -0.086191, -9.809194, -0.003175, -0.008361, 0.050579, 225.925079, -37.124634, 27.456665
1773750931.391380, 0.014066, -0.067187, -9.810840, -0.001996, -0.004692, 0.038638, 225.855804, -36.667191, 27.441040
1773750931.402230, 0.013617, -0.051625, -9.818621, -0.001029, -0.000290, 0.034866, 225.765503, -36.961807, 27.302429
1773750931.412238, -0.010924, -0.119411, -9.810541, -0.001876, 0.008631, 0.030236, 225.552689, -36.778778, 27.654190
1773750931.421828, -0.082301, -0.113874, -9.817574, -0.001003, 0.009066, 0.029175, 225.598267, -36.557037, 27.406494
1773750931.432295, -0.142156, -0.097863, -9.814431, -0.000203, 0.010694, 0.032091, 225.411407, -36.577408, 27.349335
1773750931.442280, -0.157119, -0.086491, -9.802759, -0.001376, 0.007761, 0.031030, 225.411972, -36.514252, 27.762192
1773750931.452071, -0.152630, -0.090680, -9.798719, -0.001583, 0.001924, 0.029461, 225.391815, -36.379562, 27.845276
1773750931.462415, -0.012869, -0.087388, -9.806650, -0.005076, -0.003224, 0.031772, 225.446503, -36.533752, 27.948517
1773750931.472233, 0.043694, -0.056862, -9.792883, -0.004297, -0.004826, 0.031043, 225.209885, -36.396973, 27.635132
1773750931.482209, 0.041899, -0.026635, -9.836428, -0.005624, -0.006292, 0.027953, 225.042862, -36.416077, 27.630692
1773750931.492078, 0.079009, -0.038307, -9.821763, -0.004464, -0.001295, 0.030436, 224.971588, -36.237152, 27.951035
1773750931.502215, 0.071676, -0.047285, -9.818172, -0.002280, 0.008195, 0.042270, 224.983124, -36.252487, 27.916885
1773750931.512238, -0.029628, 0.007183, -9.814730, -0.002540, 0.003997, 0.046279, 224.785599, -36.042542, 27.754745
1773750931.522210, -0.092177, -0.028730, -9.829844, 0.000204, 0.003253, 0.044412, 224.809662, -35.879227, 27.779694
1773750931.532227, -0.091578, -0.076166, -9.799916, -0.000108, 0.003818, 0.041519, 224.873322, -35.986023, 27.937454
1773750931.541842, -0.089334, -0.042946, -9.807249, -0.000374, 0.000218, 0.044166, 224.872696, -35.974823, 28.061371
1773750931.552210, -0.097713, -0.060903, -9.828946, 0.002149, 0.007413, 0.041334, 224.462845, -35.691452, 28.192383
1773750931.562232, -0.113575, -0.104297, -9.829545, 0.001329, 0.009640, 0.024896, 224.528305, -36.083344, 27.687851
1773750931.572229, -0.109834, -0.123152, -9.804854, -0.000592, 0.010118, 0.014515, 224.528305, -36.083344, 27.687851
1773750931.582235, -0.044891, -0.119560, -9.789741, -0.000179, 0.004158, 0.015075, 224.468109, -35.953842, 28.266968
1773750931.592211, -0.000449, -0.099210, -9.819968, -0.005320, -0.001060, 0.017674, 224.487808, -35.775116, 28.131851
1773750931.601313, 0.021398, -0.072724, -9.798270, -0.002113, 0.005628, 0.022506, 224.443909, -35.561661, 28.050079
1773750931.612230, -0.007482, -0.038307, -9.822811, -0.006285, 0.003552, 0.022043, 224.491501, -35.744263, 28.110306
1773750931.622216, -0.075417, -0.092626, -9.803957, -0.003037, 0.006157, 0.026090, 224.310913, -35.696075, 28.325745
1773750931.632239, -0.081702, -0.088885, -9.824607, 0.000238, 0.010428, 0.023303, 224.270905, -35.381760, 28.204651
1773750931.642222, -0.127491, -0.097863, -9.810241, -0.002611, 0.007369, 0.018497, 224.030151, -35.467590, 28.186752
1773750931.651236, -0.134375, -0.099659, -9.832986, -0.002208, 0.004715, 0.011166, 224.230438, -35.400650, 28.212646
1773750931.662358, -0.119261, -0.097115, -9.805004, -0.001900, -0.004534, 0.003379, 223.980667, -35.201660, 28.416000
1773750931.671251, -0.092925, -0.079757, -9.807398, -0.004443, -0.005317, -0.000581, 223.822205, -35.286026, 28.302200
1773750931.682212, -0.068684, -0.116119, -9.807997, -0.007359, -0.009584, -0.001183, 224.110352, -35.190659, 28.330536
1773750931.692224, -0.051924, -0.097863, -9.798420, -0.003174, -0.004392, -0.001726, 223.910400, -35.073822, 28.484985
1773750931.701247, -0.027533, -0.077512, -9.831340, -0.005373, -0.000733, -0.004207, 223.847290, -35.014221, 28.364029
1773750931.712232, -0.003292, -0.097564, -9.799467, -0.002418, 0.004229, -0.011494, 223.882950, -34.987701, 28.458450
1773750931.722212, 0.023343, -0.099060, -9.816077, -0.002186, 0.012169, -0.006803, 223.870743, -35.079926, 28.414612
1773750931.732222, 0.065092, -0.057461, -9.820267, 0.002403, 0.017728, 0.009082, 223.707657, -34.805847, 28.327011
1773750931.741764, 0.057012, -0.043096, -9.817574, -0.001314, 0.018887, 0.019296, 223.951340, -34.947357, 28.810242
1773750931.751256, -0.018854, 0.004489, -9.812935, -0.000810, 0.009752, 0.026329, 223.964706, -34.842224, 28.674973
1773750931.762378, -0.048782, 0.053720, -9.819968, -0.000001, 0.012689, 0.026496, 223.970963, -34.791580, 28.625214
1773750931.772306, -0.105345, 0.012270, -9.825055, 0.004062, 0.014265, 0.018527, 223.751587, -34.751053, 28.670441
1773750931.782212, -0.116717, -0.091429, -9.819220, -0.000290, 0.007309, 0.011199, 223.730499, -34.728119, 28.664627
1773750931.792222, -0.036811, -0.111031, -9.801862, -0.000459, -0.002192, 0.010857, 223.787857, -34.607468, 28.824203
1773750931.801274, 0.000299, -0.110283, -9.827899, -0.002837, 0.005874, 0.010861, 223.710541, -34.769989, 28.488205
1773750931.812299, 0.035763, -0.101754, -9.798570, -0.002692, 0.008644, 0.004650, 223.725510, -34.717331, 28.913879
1773750931.821963, 0.045191, -0.119112, -9.805603, -0.002809, 0.007197, -0.003986, 223.802750, -34.466690, 29.073242
1773750931.832223, 0.058209, -0.070330, -9.825504, -0.002461, 0.010967, -0.000188, 223.752365, -34.599594, 28.966980
1773750931.842237, 0.056264, -0.053121, -9.817125, 0.000356, 0.011009, 0.008772, 223.541550, -34.706284, 28.718689
1773750931.851276, 0.038307, -0.072125, -9.804405, -0.000982, 0.005163, 0.010698, 223.541550, -34.706284, 28.718689
1773750931.861540, -0.053121, -0.057012, -9.815928, -0.000752, 0.013718, 0.018615, 223.766022, -34.417877, 28.980087
1773750931.872229, -0.183755, -0.013467, -9.827749, 0.003455, 0.018950, 0.011084, 223.504715, -34.294159, 29.013229
1773750931.882276, -0.341772, -0.057162, -9.804106, 0.002452, 0.021927, 0.000149, 223.609314, -34.272064, 28.928650
1773750931.892084, -0.306757, -0.079906, -9.800814, 0.002531, 0.020074, -0.005714, 223.490509, -34.007385, 29.086823
1773750931.901308, -0.140061, -0.110133, -9.814431, -0.002999, 0.009260, 0.002307, 223.498123, -33.984039, 28.927658
1773750931.911546, 0.011522, -0.079158, -9.787347, -0.004515, -0.005430, 0.001663, 223.335434, -34.048431, 28.948608
1773750931.921850, 0.030975, -0.025289, -9.786898, -0.006351, 0.006231, -0.013569, 223.413544, -33.953079, 28.851913
1773750931.932226, 0.053570, -0.015562, -9.821015, -0.007356, -0.002259, -0.025017, 223.382446, -33.691284, 29.087402
1773750931.942216, 0.060753, -0.068983, -9.793332, -0.007005, -0.004921, -0.024592, 223.362762, -33.879013, 29.038147
1773750931.951304, -0.004190, -0.088735, -9.816975, -0.003809, -0.000537, -0.022968, 223.478775, -33.681427, 29.196350
1773750931.961554, -0.071976, -0.083498, -9.832837, -0.000723, 0.011555, -0.026264, 223.463623, -33.607819, 29.349945
1773750931.972227, -0.097414, -0.045041, -9.831340, 0.005820, 0.011849, -0.017115, 223.543304, -33.704773, 28.774017
1773750931.982211, -0.095768, 0.007033, -9.812785, 0.001255, 0.011002, -0.009090, 223.463303, -33.558823, 29.072433
1773750931.992119, -0.017807, 0.018256, -9.798570, -0.005774, 0.009813, -0.005065, 223.487747, -33.554474, 29.073669
1773750932.001420, -0.015113, 0.021398, -9.797522, -0.002877, 0.012280, -0.007693, 223.646118, -33.639572, 29.112289
1773750932.011536, -0.072874, 0.053870, -9.846454, -0.000822, 0.015606, -0.018460, 223.612137, -33.474014, 29.415207
1773750932.022272, -0.141108, -0.023792, -9.835979, -0.001332, 0.017579, -0.019838, 223.392197, -33.180527, 29.459503
1773750932.032229, -0.147842, -0.017059, -9.793482, -0.000738, -0.000095, -0.020991, 223.486023, -33.294418, 29.524399
1773750932.042133, -0.126893, 0.044143, -9.821913, -0.002043, -0.002901, -0.023048, 223.608627, -33.268173, 29.238922
1773750932.051323, -0.026037, 0.043694, -9.811887, -0.003276, -0.018362, -0.022633, 223.515686, -33.081741, 29.271500
1773750932.061635, 0.057461, 0.045340, -9.824457, -0.006735, -0.014744, -0.019934, 223.539566, -33.236145, 29.317886
1773750932.072231, 0.068235, 0.020949, -9.817723, -0.000689, -0.011249, -0.024106, 223.549347, -33.236145, 29.014633
1773750932.082213, -0.000898, 0.008679, -9.825953, -0.003513, -0.009877, -0.030329, 223.511841, -33.157837, 29.547668
1773750932.092119, -0.004788, 0.023343, -9.811289, -0.002691, -0.002540, -0.021538, 223.473129, -33.042953, 29.516815
1773750932.101406, -0.021398, 0.055216, -9.796325, -0.000701, 0.001260, -0.011267, 223.648041, -32.977219, 29.045776
1773750932.111536, -0.035614, 0.069881, -9.807548, 0.000093, 0.014772, -0.002877, 223.630585, -33.197052, 29.370346
1773750932.122212, -0.011073, 0.043844, -9.821464, -0.002715, 0.016826, 0.001734, 223.666229, -33.080383, 29.334747
1773750932.132231, 0.007632, -0.012570, -9.804705, -0.001741, 0.008837, 0.003580, 223.606232, -33.065033, 29.062057
1773750932.142134, -0.018555, 0.017358, -9.815179, -0.001184, 0.009465, -0.001178, 223.592926, -33.168198, 29.102539
1773750932.151347, 0.028132, 0.042347, -9.831939, -0.001228, 0.010923, 0.000967, 223.592926, -33.168198, 29.102539
1773750932.161551, 0.021249, 0.064494, -9.800216, 0.000216, 0.004405, 0.000208, 223.817322, -32.940521, 29.139145
1773750932.172227, -0.016310, -0.015113, -9.800365, -0.003730, 0.003084, -0.004793, 223.720718, -32.995682, 29.351044
1773750932.182214, -0.035015, -0.041899, -9.807847, -0.001786, -0.001754, -0.000513, 223.922119, -33.104065, 29.337906
1773750932.192143, -0.101155, -0.012570, -9.813084, -0.005086, -0.010419, 0.004189, 223.557556, -32.702805, 29.148895
1773750932.201431, -0.097713, -0.002693, -9.819519, -0.002597, -0.007671, 0.003425, 223.706390, -32.909271, 29.456390
1773750932.211533, -0.084246, 0.001646, -9.816825, 0.001736, 0.000175, -0.004397, 223.819397, -32.981201, 29.434113
1773750932.222214, -0.035165, 0.084396, -9.823110, -0.002470, 0.004395, -0.012395, 223.715973, -32.804504, 29.315567
1773750932.232230, -0.014964, 0.094721, -9.810391, -0.002391, 0.004289, -0.014383, 223.875702, -32.759521, 29.466904
1773750932.242152, 0.012570, 0.113575, -9.806351, -0.004616, 0.007538, -0.012937, 223.935867, -32.772324, 29.971542
1773750932.251368, -0.021099, 0.145897, -9.809493, -0.001801, 0.008493, -0.014048, 223.635773, -32.840195, 29.727707
1773750932.261554, -0.054169, 0.123750, -9.809194, -0.001529, 0.015288, -0.016084, 223.874252, -32.745071, 29.929230
1773750932.272238, -0.081403, 0.067038, -9.802460, 0.001333, 0.016830, -0.009440, 223.835754, -32.704788, 29.596466
1773750932.282216, -0.046837, 0.089633, -9.828647, 0.000532, 0.021602, -0.003377, 223.727829, -32.632187, 29.503723
1773750932.292149, -0.021249, 0.081104, -9.821763, -0.000528, 0.017756, 0.000017, 223.788452, -32.700867, 29.463852
1773750932.301394, -0.057760, 0.105644, -9.815778, 0.002720, 0.008836, 0.006521, 223.983322, -32.784973, 29.367172
1773750932.311539, -0.053870, 0.175675, -9.807398, 0.004561, 0.014720, 0.005819, 223.938080, -32.904800, 29.395248
1773750932.322214, -0.056713, 0.220865, -9.824307, -0.002585, 0.012913, 0.002262, 223.939072, -32.769318, 29.365829
1773750932.332241, -0.064793, 0.207547, -9.814431, -0.004439, 0.005076, 0.001146, 223.925537, -32.804474, 29.488831
1773750932.342148, -0.038457, -0.106243, -9.801413, -0.005924, -0.003204, 0.002629, 223.931686, -32.627014, 29.291870
1773750932.351409, -0.051625, -0.083049, -9.814581, -0.002326, -0.000033, 0.003692, 223.869141, -32.576645, 29.343872
1773750932.361550, -0.042048, -0.083498, -9.825654, 0.000094, 0.006880, 0.003633, 223.789185, -32.730362, 29.527878
1773750932.372230, -0.039504, -0.090531, -9.810541, -0.001623, 0.008579, 0.002261, 223.871414, -32.840485, 29.094284
1773750932.382286, -0.039355, -0.085742, -9.824008, 0.002082, 0.015422, 0.002021, 223.966751, -32.885635, 29.431305
1773750932.392183, -0.052373, -0.077512, -9.824457, 0.002239, 0.017267, 0.002714, 223.899628, -32.892715, 29.603210
1773750932.401488, -0.036212, -0.077812, -9.818172, 0.001445, 0.014882, 0.002166, 223.844086, -32.847168, 29.435379
1773750932.411529, -0.043545, -0.079757, -9.823709, -0.000599, 0.011517, 0.000222, 223.882355, -32.880234, 29.445923
1773750932.422217, -0.039654, -0.093224, -9.814282, 0.001984, 0.011098, 0.001867, 224.202316, -32.879349, 29.368713
1773750932.432218, -0.031125, -0.091429, -9.814581, -0.000077, 0.008149, 0.002525, 223.969833, -32.653732, 29.265274
1773750932.442206, -0.057012, -0.086491, -9.808296, -0.001702, 0.010977, 0.001549, 223.790665, -32.887115, 29.170609
1773750932.451418, -0.024541, -0.095170, -9.810840, -0.002441, 0.008604, 0.003521, 223.790665, -32.887115, 29.170609
1773750932.461591, -0.044592, -0.086042, -9.813533, 0.000422, 0.011138, 0.002447, 223.982834, -32.752350, 29.230560
1773750932.472304, -0.046238, -0.080804, -9.811289, -0.000075, 0.014758, 0.002770, 224.183746, -33.019821, 29.193619
1773750932.482255, -0.027982, -0.089334, -9.825953, 0.004216, 0.019964, 0.001963, 223.857559, -32.970215, 28.972046
1773750932.492138, -0.048483, -0.087239, -9.826103, 0.003670, 0.013821, 0.002456, 223.966019, -32.797165, 29.056656
1773750932.501438, -0.032621, -0.087089, -9.816227, 0.002003, 0.020670, 0.001982, 223.894318, -32.777451, 29.399902
1773750932.511605, -0.038906, -0.071527, -9.850943, 0.005696, 0.053352, 0.002264, 223.953842, -32.850418, 29.300079
1773750932.522287, -0.026785, -0.080056, -9.800515, -0.007877, -0.008482, 0.002429, 223.869797, -32.705521, 29.257812
1773750932.532229, 0.017957, -0.086491, -9.771784, -0.000799, 0.001806, 0.004303, 223.815002, -32.680359, 29.291077
1773750932.542149, -0.048183, -0.086640, -9.823110, -0.003534, 0.008430, 0.003104, 223.865143, -32.747726, 28.962402
1773750932.551510, -0.016610, -0.103699, -9.789142, -0.003324, 0.008865, 0.002294, 223.920013, -33.032043, 29.212967
1773750932.561553, -0.015413, -0.097115, -9.828796, -0.001560, 0.004951, 0.001077, 223.941635, -32.725494, 29.401718
1773750932.572260, -0.031574, -0.109385, -9.821913, -0.000999, 0.015564, 0.002438, 224.016327, -32.725388, 29.477966
1773750932.581300, -0.048034, -0.101005, -9.825504, -0.009811, -0.015828, 0.000981, 223.903473, -32.796646, 29.370193
1773750932.592115, 0.019752, -0.093374, -9.773430, -0.004217, -0.025918, 0.002543, 223.761337, -32.807022, 29.485428
1773750932.601485, -0.075268, -0.071377, -9.868450, 0.004279, 0.033744, 0.000740, 223.769180, -32.843140, 29.324646