SamplingTime, AccelerationX, AccelerationY, AccelerationZ, GyroX, GyroY, GyroZ, MagneticFieldX, MagneticFieldY, MagneticFieldZ
1773750745.410269, , , , , , , , , 
1773750745.420268, , , , , , , , , 
1773750745.430288, 0.022895, -0.182857, -9.818621, -0.002066, 0.032945, 0.001063, 196.548889, -27.872879, 31.827621
1773750745.440243, 0.035314, -0.171784, -9.824008, -0.001426, 0.038125, 0.001759, 196.401016, -27.750412, 31.386383
1773750745.450292, 0.014365, -0.177470, -9.819519, -0.004465, 0.002474, 0.001986, 196.452164, -27.807922, 31.584778
1773750745.460285, 0.052672, -0.175974, -9.786898, -0.004646, 0.000273, 0.000838, 196.459335, -27.742218, 31.851990
1773750745.470292, 0.044293, -0.183605, -9.797372, -0.001877, -0.015461, 0.003751, 196.478241, -27.856949, 31.564072
1773750745.479461, 0.021099, -0.168642, -9.828647, -0.004593, -0.034652, 0.004716, 196.171768, -27.553268, 31.787674
1773750745.490250, 0.031723, -0.178817, -9.796175, -0.002619, -0.029792, 0.004925, 196.336487, -27.634827, 31.731796
1773750745.499930, 0.024241, -0.183755, -9.817424, -0.001072, -0.023906, 0.004711, 196.135101, -27.606781, 31.470825
1773750745.510146, 0.013168, -0.177620, -9.824906, -0.000929, -0.011258, 0.003098, 196.318863, -27.591385, 31.743073
1773750745.520278, 0.018854, -0.168941, -9.834932, -0.000943, 0.022744, 0.001780, 196.350754, -27.766876, 31.701889
1773750745.530279, -0.018705, -0.171634, -9.836578, -0.001333, 0.013519, 0.003047, 196.375732, -27.958786, 31.613480
1773750745.540094, 0.009128, -0.179116, -9.820566, -0.002597, -0.003519, 0.002201, 196.349854, -27.907761, 31.852814
1773750745.550276, 0.031723, -0.161908, -9.792135, -0.000965, -0.004050, 0.003563, 196.361465, -27.922409, 31.730911
1773750745.560307, 0.009278, -0.179864, -9.811289, -0.001238, -0.012872, 0.002019, 196.418320, -27.863388, 31.638962
1773750745.570274, 0.030526, -0.173131, -9.803208, -0.002945, -0.027621, 0.003289, 196.418320, -27.863388, 31.638962
1773750745.580280, 0.018705, -0.171185, -9.803508, -0.004501, -0.032744, 0.002958, 196.353317, -27.861481, 31.614319
1773750745.590125, 0.010026, -0.179864, -9.822661, -0.004160, -0.035016, 0.002024, 196.393265, -27.829987, 31.910782
1773750745.600286, 0.010175, -0.175226, -9.809643, -0.003872, -0.050663, 0.002683, 196.212067, -27.808167, 31.676193
1773750745.610163, 0.019603, -0.173729, -9.803358, -0.003108, 0.001767, 0.002062, 196.328430, -27.699600, 31.877274
1773750745.620286, -0.023942, -0.183605, -9.854983, -0.002480, 0.036560, 0.001862, 196.215851, -27.668137, 31.546448
1773750745.630298, -0.029628, -0.173580, -9.842413, -0.002584, 0.003916, 0.003326, 196.168991, -27.748169, 31.744965
1773750745.640127, 0.017358, -0.172532, -9.799018, -0.003525, 0.017347, 0.001842, 196.281036, -27.663010, 31.711319
1773750745.650201, -0.001496, -0.177769, -9.825205, -0.002282, 0.007004, 0.002553, 196.471756, -27.686111, 31.999283
1773750745.660286, 0.011372, -0.179864, -9.830143, 0.000931, -0.000430, 0.004657, 196.560959, -27.840546, 31.849213
1773750745.670273, 0.030825, -0.165350, -9.813234, -0.000007, 0.048103, 0.002710, 196.466782, -27.718643, 31.781113
1773750745.679958, -0.030676, -0.186598, -9.856928, -0.000608, 0.072205, 0.001164, 196.531143, -27.726212, 31.887695
1773750745.690120, -0.009726, -0.191386, -9.840169, -0.003485, 0.054545, 0.002884, 196.554749, -27.734222, 32.012497
1773750745.700306, 0.037559, -0.187496, -9.807697, 0.001023, 0.023151, -0.003653, 196.353882, -27.748459, 31.927307
1773750745.710290, 0.008829, -0.300173, -9.785701, -0.001211, -0.016774, -0.035675, 196.277130, -27.651276, 31.914658
1773750745.720317, -0.122852, -0.949600, -9.783157, -0.002075, -0.003145, -0.043071, 196.447296, -27.843597, 31.873428
1773750745.730296, 0.013168, -0.229544, -9.821614, 0.001481, 0.027491, -0.035453, 196.521179, -27.677124, 31.678421
1773750745.740117, 0.023792, 0.096516, -9.843012, -0.000157, 0.017133, -0.031191, 196.562256, -27.675095, 31.902283
1773750745.750297, 0.049979, -0.149937, -9.811738, 0.001222, 0.008994, -0.039840, 196.546356, -27.804413, 31.766296
1773750745.760304, 0.000299, -0.459687, -9.799318, -0.001923, 0.009192, -0.055018, 196.508026, -27.688690, 32.037811
1773750745.770029, -0.016909, -0.529268, -9.812486, -0.001352, -0.027861, -0.053493, 196.654999, -27.774689, 31.944214
1773750745.780277, 0.033220, -0.435745, -9.798121, -0.002039, -0.045256, -0.051927, 196.509842, -27.857025, 31.855194
1773750745.790135, 0.054019, -0.391153, -9.797672, 0.002577, -0.028116, -0.043032, 196.639053, -27.740387, 31.849777
1773750745.800042, 0.064793, -0.331148, -9.822512, 0.000763, -0.005694, -0.028148, 196.573074, -27.854431, 31.612671
1773750745.810342, 0.051775, -0.295983, -9.833285, 0.002619, 0.006913, -0.009243, 196.814560, -28.023132, 32.116013
1773750745.820281, 0.048782, -0.332195, -9.823110, 0.001728, 0.014634, 0.003678, 196.513733, -27.711029, 31.731705
1773750745.830281, 0.037709, -0.365864, -9.823858, 0.002466, 0.006355, 0.005755, 196.698013, -27.932449, 31.821854
1773750745.840186, 0.029030, -0.413449, -9.813384, 0.002466, 0.006355, 0.005755, 196.574814, -27.741394, 31.770889
1773750745.850276, 0.064045, -0.486322, -9.811289, -0.001083, -0.005276, -0.012241, 196.463669, -27.840012, 32.053497
1773750745.860313, 0.025289, -0.456844, -9.803807, -0.002368, -0.017317, -0.010053, 196.463669, -27.840012, 32.053497
1773750745.870268, 0.049530, -0.485275, -9.816825, -0.001261, -0.022197, -0.003618, 196.656754, -27.943069, 31.774857
1773750745.879601, 0.064045, -0.508618, -9.804705, -0.001261, -0.022197, -0.003618, 196.725800, -27.834930, 31.997482
1773750745.890195, 0.019004, -0.392350, -9.804405, -0.000202, -0.034055, 0.030202, 196.839371, -27.998047, 31.925308
1773750745.900275, -0.061651, -0.259621, -9.820417, 0.000511, -0.012268, 0.044937, 196.779633, -27.794159, 31.883743
1773750745.910285, -0.093823, -0.243610, -9.828647, 0.000511, -0.012268, 0.044937, 196.444687, -27.675201, 31.713867
1773750745.920286, -0.097414, -0.312743, -9.816975, 0.000838, -0.002471, 0.048639, 196.499191, -27.795868, 32.116074
1773750745.930286, -0.035614, -0.396240, -9.820417, 0.000130, -0.002653, 0.044635, 196.283340, -27.764175, 31.810623
1773750745.940135, 0.014066, -0.413000, -9.815778, 0.002186, -0.005891, 0.042156, 196.661285, -27.778717, 31.984390
1773750745.950287, 0.038307, -0.407762, -9.817274, -0.000107, 0.004359, 0.036198, 196.580704, -27.655334, 32.326004
1773750745.960296, 0.009876, -0.389507, -9.821763, 0.001182, 0.004438, 0.026375, 196.541245, -27.806320, 32.436874
1773750745.970342, -0.001047, -0.340575, -9.807697, 0.002566, 0.001398, 0.010846, 196.702728, -27.830795, 32.158142
1773750745.980264, 0.021847, -0.291943, -9.829844, 0.002513, 0.007258, -0.000697, 196.436905, -27.655640, 32.386566
1773750745.990163, 0.024092, -0.175375, -9.812935, -0.000093, -0.008128, 0.001812, 196.415787, -27.682114, 32.375336
1773750746.000286, -0.039205, -0.118663, -9.828198, -0.001332, -0.017821, 0.017066, 196.354843, -27.797638, 32.571945
1773750746.010270, -0.107739, -0.127042, -9.844359, -0.000582, 0.006271, 0.017153, 196.270737, -27.564880, 32.628494
1773750746.020293, -0.082600, -0.222511, -9.828796, 0.002946, 0.017781, 0.002072, 196.287689, -27.681976, 32.423889
1773750746.030298, -0.033968, -0.326360, -9.809044, 0.001744, 0.016212, -0.015404, 196.447281, -27.551544, 32.683502
1773750746.040220, 0.007482, -0.313192, -9.807548, -0.001279, 0.002458, -0.026976, 196.483871, -27.476257, 32.596680
1773750746.050290, 0.031873, -0.204405, -9.838972, -0.000261, 0.009730, -0.026413, 196.455750, -27.742050, 32.349533
1773750746.060285, 0.044293, -0.202011, -9.839570, -0.000342, 0.018339, -0.010323, 196.641037, -27.700180, 32.822708
1773750746.070270, -0.016909, -0.177470, -9.831191, 0.003164, 0.030691, 0.002062, 196.647690, -27.333511, 32.733215
1773750746.080271, -0.019603, -0.187646, -9.817723, -0.000408, 0.032849, -0.002686, 196.608627, -27.554092, 32.631454
1773750746.090172, 0.021697, -0.308253, -9.812187, 0.003539, 0.056203, -0.024725, 196.421951, -27.569672, 32.815125
1773750746.100285, 0.070479, -0.363919, -9.804405, 0.002784, 0.049138, -0.039615, 196.662918, -27.654251, 32.647552
1773750746.110269, 0.099509, -0.268599, -9.804106, -0.000782, 0.001555, -0.032886, 196.541016, -27.565948, 32.720627
1773750746.120285, 0.005088, -0.162806, -9.799916, 0.001420, -0.013885, -0.024822, 196.371872, -27.515015, 32.816071
1773750746.130280, -0.070030, -0.108338, -9.815030, 0.003460, 0.002153, -0.022342, 196.628403, -27.476654, 32.995300
1773750746.140160, -0.069133, -0.112527, -9.828048, 0.003736, 0.038539, -0.025822, 196.478546, -27.615799, 33.018127
1773750746.150260, -0.032322, -0.225504, -9.809194, 0.001096, 0.035434, -0.029668, 196.578110, -27.529953, 33.003983
1773750746.160285, 0.002843, -0.242862, -9.808296, -0.003484, 0.027900, -0.033132, 196.578110, -27.529953, 33.003983
1773750746.170340, 0.015712, -0.222960, -9.814132, -0.001050, 0.037889, -0.028289, 196.568954, -27.594696, 33.007614
1773750746.180149, 0.051176, -0.150685, -9.816077, 0.000470, 0.032840, -0.025394, 196.292526, -27.296997, 32.933136
1773750746.190200, 0.051924, -0.053421, -9.802311, 0.003440, 0.018031, -0.009803, 196.465546, -27.286011, 32.982681
1773750746.200317, 0.032172, -0.055067, -9.806201, 0.002329, 0.002121, 0.013267, 196.495407, -27.518478, 33.094421
1773750746.210270, -0.002993, -0.105794, -9.820417, 0.002894, -0.000208, 0.024483, 196.360275, -27.249466, 33.164780
1773750746.220294, -0.034417, -0.141707, -9.822212, 0.001338, 0.017625, 0.027545, 196.561798, -27.544708, 33.219131
1773750746.230294, -0.004788, -0.115520, -9.799168, -0.003380, 0.013391, 0.029552, 196.546707, -27.500168, 33.146820
1773750746.240270, -0.017059, -0.135871, -9.812785, -0.000363, 0.006139, 0.034487, 196.365860, -27.452713, 33.223816
1773750746.250158, -0.002394, -0.226102, -9.798719, 0.003714, 0.004680, 0.039292, 196.448532, -27.316666, 33.171906
1773750746.260283, -0.006434, -0.285359, -9.833136, 0.000659, 0.014160, 0.037847, 196.604843, -27.266739, 33.342972
1773750746.270346, -0.074071, -0.297629, -9.806650, 0.003455, 0.022625, 0.022560, 196.446838, -27.279251, 33.187622
1773750746.280124, -0.090381, -0.202759, -9.809044, -0.001105, 0.006626, 0.009842, 196.498093, -27.213577, 33.284683
1773750746.290200, -0.072874, -0.119560, -9.805752, 0.003755, -0.017660, 0.012170, 196.582443, -27.313217, 33.215927
1773750746.300324, -0.045041, -0.114922, -9.812486, 0.000906, -0.032087, 0.017466, 196.492950, -27.328964, 33.347137
1773750746.310160, -0.013617, -0.055067, -9.833734, 0.004588, -0.026936, 0.020681, 196.409241, -27.115601, 33.256912
1773750746.320288, 0.083498, -0.062100, -9.828946, 0.003613, -0.005742, 0.030662, 196.566193, -27.376389, 33.410858
1773750746.330287, 0.082750, -0.077812, -9.818471, 0.001391, 0.004462, 0.033039, 196.349731, -27.127167, 33.244522
1773750746.340176, 0.017807, -0.111630, -9.811289, -0.000978, 0.016106, 0.036626, 196.168488, -26.968033, 33.601410
1773750746.350286, -0.064494, -0.101005, -9.809942, 0.003355, 0.013368, 0.037295, 196.448624, -27.168533, 33.699936
1773750746.359616, -0.072125, -0.148291, -9.816376, 0.001646, 0.016459, 0.034070, 196.380829, -27.171494, 33.559250
1773750746.370266, -0.067487, -0.160561, -9.825654, 0.001873, 0.019153, 0.031964, 196.338699, -27.140137, 33.636307
1773750746.380268, -0.093075, -0.222212, -9.798869, 0.001159, 0.010299, 0.024087, 196.216721, -26.974060, 33.806122
1773750746.390203, -0.115071, -0.226851, -9.806650, -0.001244, -0.005887, 0.008305, 196.171600, -26.891190, 33.813568
1773750746.400286, -0.065691, -0.202460, -9.816376, -0.000976, -0.012839, -0.002312, 196.415482, -27.079376, 33.664307
1773750746.410272, -0.041001, -0.213682, -9.818771, -0.003225, -0.002651, -0.006698, 196.392471, -27.029846, 34.165726
1773750746.420284, 0.028132, -0.179864, -9.848997, -0.000423, 0.018861, -0.002262, 196.321228, -26.987289, 34.042328
1773750746.430288, 0.074071, -0.104896, -9.831789, 0.003291, 0.030817, 0.001029, 196.305084, -27.050201, 34.132095
1773750746.440267, 0.059256, -0.110133, -9.810092, -0.002241, 0.022139, 0.000165, 196.465881, -26.953964, 33.871353
1773750746.450358, 0.053870, -0.157419, -9.819220, 0.001529, 0.012432, -0.010798, 196.426910, -26.897461, 34.278732
1773750746.460288, 0.089633, -0.180613, -9.819369, 0.003764, 0.015740, -0.012318, 196.426910, -26.897461, 34.278732
1773750746.470272, 0.092177, -0.216077, -9.823260, 0.002854, 0.024416, -0.011915, 196.392105, -26.874542, 34.101883
1773750746.479550, 0.085293, -0.242413, -9.815329, 0.001134, 0.013268, -0.010924, 196.336349, -26.791992, 34.192688
1773750746.490353, 0.068534, -0.148441, -9.821913, 0.001525, 0.024497, -0.011339, 196.420959, -26.681961, 34.441803
1773750746.500292, 0.082899, -0.117466, -9.812336, 0.004411, 0.010325, -0.006833, 196.470184, -26.929916, 34.220032
1773750746.510307, 0.042347, -0.225953, -9.786299, 0.000543, -0.012714, -0.001855, 196.447891, -26.704391, 34.244049
1773750746.520331, 0.002245, -0.303166, -9.805004, -0.003474, -0.020746, 0.008184, 196.352142, -26.575027, 34.538651
1773750746.530291, -0.041899, -0.281019, -9.824158, -0.002139, -0.022592, 0.013454, 196.431488, -26.890930, 34.064621
1773750746.540343, -0.031873, -0.196624, -9.830143, -0.003252, -0.007209, 0.017284, 196.413696, -26.831512, 34.390030
1773750746.550279, -0.013916, -0.108338, -9.840169, 0.001992, 0.015456, 0.020655, 196.324036, -26.556702, 34.607361
1773750746.560273, 0.047136, -0.194978, -9.830293, 0.000170, 0.028435, 0.024186, 196.325195, -26.910614, 34.621460
1773750746.570268, 0.063746, -0.258723, -9.810092, 0.001981, 0.028431, 0.027992, 196.565475, -26.809982, 34.471283
1773750746.580267, 0.067038, -0.208744, -9.833136, -0.001246, 0.030877, 0.024336, 196.343948, -26.692963, 34.588593
1773750746.590272, 0.053570, -0.186000, -9.801562, 0.000232, 0.022998, 0.020232, 196.282791, -26.612595, 34.366425
1773750746.600275, 0.014964, -0.189292, -9.786150, -0.000303, 0.007233, 0.019728, 196.285080, -26.615997, 34.343994
1773750746.609477, 0.014964, -0.189292, -9.786150, -0.001141, 0.012419, 0.018478, 196.418350, -26.524002, 34.576019
1773750746.620282, -0.014216, -0.224157, -9.810541, 0.002340, -0.009378, 0.018334, 196.439911, -26.827469, 34.459747
1773750746.630288, -0.037858, -0.198569, -9.804106, -0.003474, -0.015982, 0.025012, 196.343658, -26.717712, 34.621155
1773750746.640270, 0.001646, -0.094272, -9.816975, 0.004253, -0.010195, 0.035819, 196.310333, -26.577560, 35.097137
1773750746.650284, 0.053121, -0.070330, -9.828497, -0.000873, -0.007887, 0.040227, 196.220520, -26.392181, 34.859543
1773750746.660285, 0.032920, -0.159364, -9.794829, -0.002446, -0.001414, 0.039916, 196.348373, -26.514465, 34.803467
1773750746.670269, -0.001945, -0.187646, -9.834034, -0.000293, 0.009031, 0.036148, 196.226334, -26.481415, 34.714005
1773750746.680271, -0.047435, -0.244957, -9.847202, -0.000680, 0.003350, 0.035347, 196.219467, -26.386795, 34.807037
1773750746.690296, -0.082001, -0.236128, -9.826103, 0.000024, 0.003425, 0.044337, 196.150620, -26.441315, 35.176849
1773750746.700286, -0.049081, -0.169240, -9.823260, -0.000724, 0.006932, 0.046112, 196.257294, -26.443726, 35.061676
1773750746.709398, -0.079009, -0.151134, -9.819369, -0.002698, -0.003807, 0.038837, 196.255508, -26.275818, 35.354767
1773750746.720267, -0.092775, -0.129586, -9.801712, 0.000062, -0.014360, 0.038280, 196.236649, -26.435959, 35.482025
1773750746.729434, -0.077512, -0.133327, -9.801113, -0.002216, -0.009692, 0.022111, 196.236649, -26.435959, 35.482025
1773750746.740271, -0.081702, -0.139462, -9.799018, -0.001099, -0.011963, 0.007576, 196.150620, -26.123016, 35.359711
1773750746.749530, -0.043694, -0.124349, -9.822960, 0.001343, -0.003630, 0.007355, 196.150620, -26.123016, 35.359711
1773750746.760288, 0.051475, -0.130634, -9.834782, 0.002166, 0.001477, 0.013068, 196.031662, -26.406082, 35.044022
1773750746.770269, 0.073921, -0.111630, -9.829844, 0.001043, -0.006909, 0.012676, 196.239029, -26.273483, 35.603958
1773750746.780269, 0.031723, -0.128688, -9.832388, 0.003018, -0.004691, 0.018229, 196.175735, -26.186707, 35.578873
1773750746.790414, 0.055216, -0.074968, -9.817574, -0.001866, 0.000787, 0.017915, 196.235016, -26.002655, 35.635880
1773750746.800290, 0.051775, -0.057311, -9.818920, 0.000225, 0.024947, 0.017029, 196.134247, -25.904846, 35.254013
1773750746.810313, 0.050129, -0.140061, -9.835829, 0.001853, 0.038813, 0.009177, 196.131836, -25.953415, 35.690674
1773750746.820427, 0.041899, -0.193930, -9.810241, 0.001712, 0.017991, 0.010626, 196.197250, -25.938858, 35.806290
1773750746.830286, 0.061651, -0.223559, -9.808895, 0.001839, 0.012435, 0.019933, 196.195236, -26.088135, 35.364655
1773750746.839635, 0.066589, -0.205153, -9.804405, 0.001547, 0.014478, 0.022256, 196.249130, -26.073425, 35.410461
1773750746.850286, 0.015113, -0.174627, -9.815778, 0.001045, 0.007199, 0.018095, 196.227768, -25.758331, 35.726166
1773750746.860287, 0.001646, -0.209193, -9.810092, 0.001498, 0.008946, 0.003751, 196.308365, -25.979523, 35.652542
1773750746.870341, -0.036362, -0.330400, -9.805752, 0.001148, 0.023649, -0.007972, 196.245605, -25.983078, 35.537521
1773750746.880291, -0.032920, -0.273837, -9.835680, -0.001924, 0.019207, -0.019005, 196.254517, -25.862564, 35.488159
1773750746.890295, -0.009726, -0.244059, -9.809643, -0.000111, -0.005125, -0.020923, 196.110168, -25.857620, 35.584763
1773750746.900285, 0.052672, -0.158765, -9.794679, 0.000022, -0.010811, -0.016741, 196.241806, -25.925751, 35.465347
1773750746.910270, 0.055964, -0.114323, -9.821015, -0.003497, -0.013309, -0.001163, 195.886871, -25.721603, 35.869278
1773750746.920270, 0.025289, -0.167594, -9.804705, 0.002928, -0.010353, 0.004160, 196.044510, -25.798553, 35.521423
1773750746.930285, 0.015712, -0.052972, -9.854833, 0.003459, 0.016442, 0.010296, 196.114578, -25.825592, 35.619629
1773750746.940180, -0.023493, -0.193481, -9.815628, -0.000099, 0.029436, 0.009554, 196.182663, -25.665314, 35.943497
1773750746.950096, -0.036212, -0.222661, -9.816676, 0.001584, 0.035115, 0.003792, 196.274445, -25.567719, 35.991379
1773750746.960298, -0.022745, -0.228347, -9.835979, 0.004175, 0.025974, -0.001929, 196.348557, -25.749329, 35.748642
1773750746.969484, 0.008829, -0.187945, -9.819369, 0.000235, 0.007152, -0.004524, 196.274963, -25.779434, 35.922546
1773750746.979443, -0.019453, -0.265457, -9.784354, -0.000716, -0.002250, -0.010621, 196.179214, -25.526031, 35.946213
1773750746.990284, -0.023942, -0.259921, -9.796774, 0.002144, -0.001042, -0.022792, 196.282730, -25.586487, 35.745590
1773750747.000293, 0.000299, -0.257975, -9.815329, 0.001279, -0.007562, -0.029983, 196.336212, -25.365829, 35.909515
1773750747.009516, 0.037409, -0.216975, -9.820866, -0.001296, -0.004343, -0.031954, 196.211151, -25.372116, 36.435745
1773750747.020288, 0.043993, -0.102801, -9.820117, 0.000995, -0.011077, -0.027941, 196.299789, -25.359039, 35.938126
1773750747.030181, 0.033369, -0.007632, -9.832986, 0.004339, 0.007945, -0.016698, 196.254089, -25.337799, 36.112900
1773750747.040267, 0.072275, -0.003442, -9.848249, 0.003720, 0.028698, -0.007279, 196.254089, -25.337799, 36.112900
1773750747.050296, 0.090980, -0.075567, -9.847351, 0.005160, 0.024886, -0.007170, 196.299393, -25.339294, 36.111237
1773750747.060285, 0.091877, -0.152481, -9.829096, 0.003651, 0.023274, -0.021824, 196.492004, -25.427597, 35.841370
1773750747.070267, 0.057910, -0.199467, -9.807249, 0.001416, 0.008107, -0.034703, 196.347702, -25.533524, 36.158035
1773750747.080271, 0.074071, -0.211139, -9.801862, -0.001834, 0.009119, -0.047678, 196.366455, -25.424484, 36.053558
1773750747.090286, 0.134375, -0.253636, -9.800664, -0.005060, 0.001521, -0.054672, 196.362671, -25.278946, 36.188309
1773750747.100284, 0.101903, -0.208296, -9.803208, -0.000846, -0.005504, -0.059963, 196.277374, -25.287811, 36.195129
1773750747.110271, 0.040851, -0.101454, -9.820267, 0.002147, -0.007983, -0.050107, 196.499023, -25.250198, 36.241364
1773750747.120288, 0.060154, -0.044293, -9.817125, 0.000178, -0.012850, -0.033586, 196.462753, -25.254990, 36.212189
1773750747.130280, 0.067337, -0.005537, -9.819818, -0.000384, -0.007816, -0.015796, 196.497864, -25.244751, 36.319824
1773750747.140277, 0.079458, -0.006584, -9.818172, 0.002721, 0.017869, -0.001892, 196.353653, -25.252747, 36.167572
1773750747.150285, 0.078560, 0.037110, -9.821314, -0.000234, 0.028274, 0.010221, 196.380890, -24.984116, 36.316055
1773750747.160287, 0.070629, -0.035763, -9.831789, 0.002319, 0.030675, 0.017107, 196.386154, -25.260498, 36.075241
1773750747.170269, 0.111630, -0.140659, -9.814880, 0.001854, 0.031353, 0.025644, 196.384048, -25.152069, 36.299332
1773750747.180259, 0.151733, -0.105644, -9.821314, -0.000388, 0.025667, 0.022261, 196.385529, -24.873352, 36.415054
1773750747.190295, 0.125696, -0.114473, -9.805004, 0.000825, 0.011128, 0.022832, 196.578491, -25.124496, 36.384537
1773750747.200365, 0.053870, -0.044293, -9.807697, -0.000189, 0.016264, 0.027667, 196.467972, -24.977875, 36.288330
1773750747.210284, -0.026037, 0.085443, -9.837475, 0.000167, 0.014739, 0.029809, 196.336395, -24.841782, 36.548294
1773750747.220322, -0.100407, 0.126444, -9.816376, -0.000824, -0.000758, 0.022274, 196.509918, -25.078232, 36.754440
1773750747.230294, -0.112378, 0.071976, -9.795726, 0.000063, 0.001527, 0.022055, 196.385818, -25.003784, 36.471252
1773750747.240011, -0.066738, 0.022595, -9.826402, -0.001550, -0.000153, 0.019018, 196.426849, -25.030045, 36.498901
1773750747.250291, -0.043096, -0.006285, -9.818621, 0.000378, 0.009214, 0.021464, 196.312149, -24.695084, 36.384064
1773750747.260351, -0.035614, 0.007482, -9.821015, -0.000344, 0.026794, 0.020290, 196.170715, -24.821625, 36.320847
1773750747.270273, -0.030975, -0.009427, -9.839720, 0.000963, 0.035625, 0.019639, 196.224747, -25.027618, 36.317688
1773750747.280263, -0.042198, -0.016759, -9.821464, 0.003418, 0.046370, 0.014832, 196.364563, -24.690186, 36.422562
1773750747.290294, -0.051475, 0.018106, -9.819220, 0.001326, 0.051717, 0.011145, 196.419449, -24.965775, 36.304657
1773750747.300275, -0.042647, -0.011522, -9.825504, 0.000877, 0.024628, 0.006353, 196.463806, -24.887115, 36.626068
1773750747.309875, -0.020201, -0.024840, -9.805154, 0.000877, 0.024628, 0.006353, 196.504761, -24.744308, 36.568542
1773750747.320358, 0.018256, -0.107440, -9.806051, 0.001007, 0.018240, 0.002588, 196.504761, -24.744308, 36.568542
1773750747.330270, 0.031574, -0.221613, -9.841815, 0.001287, -0.040515, 0.003981, 196.334900, -25.102753, 36.318695
1773750747.340288, 0.084096, -0.202609, -9.751733, 0.001287, -0.040515, 0.003981, 196.334900, -25.102753, 36.318695
1773750747.350274, 0.021548, -0.210839, -9.830442, -0.007871, -0.005976, 0.002385, 196.294785, -24.974442, 36.391968
1773750747.360351, 0.028431, -0.205752, -9.817424, -0.003572, -0.018700, 0.004323, 196.082382, -24.716888, 36.502350
1773750747.370342, 0.052224, -0.208894, -9.816077, -0.008462, -0.039952, 0.004757, 196.218063, -24.899765, 36.566147
1773750747.380263, 0.021697, -0.184354, -9.848399, -0.004148, -0.010086, 0.003539, 196.440704, -24.716721, 36.713211
1773750747.390290, -0.002394, -0.197971, -9.850793, -0.000076, 0.015218, 0.003785, 196.225250, -24.894409, 36.651566
1773750747.400296, 0.027833, -0.207098, -9.831789, -0.001359, 0.016540, -0.000052, 196.340302, -24.858276, 36.417282